"build","experimentName","subject","date","time","trialcode","blockcode","stimulusitem1","trial.choice.percentcorrect","trial.choice.latency","trial.choice.response","picture.correctStim.currentvalue","picture.incorrectStim.currentvalue","block_number","task_phase","index_correctChoice","index_incorrectChoice","correctChoicePosition","rightleftcorrect","correctKey","incorrectKey","percentTrialsCorrectFeedback_correctStim","percentTrialsCorrectFeedback_incorrectStim","responseAndFeedbackCategory","isThisTrialPractice","isResponseCorrect","isFeedbackAccurate","trial_number","total_trialnum","numbercorrectfeedback","totalcorrect","consecutivecorrect","reversalnumber","totalearnings","centsearned"
"6.4.2","Reversal_Task","1","2021-09-27","19:49:17","choice","Experiment_block_start","pen.bmp","100","430","33","2","31","1","Acquisiton","2","31","2","right","36","33","0.6999999999999999556","0.2999999999999999889","IRCF","0","-1","-1","1","1","0","6","0","23","3","0"
"6.4.2","Reversal_Task","1","2021-09-27","19:49:17","fixation","Experiment_block_start","+","100","430","33","2","31","1","Acquisiton","2","31","2","right","36","33","0.6999999999999999556","0.2999999999999999889","IRCF","0","-1","-1","1","1","1","6","0","23","3","0.5"
"6.4.2","Reversal_Task","1","2021-09-27","19:49:17","choice","Experiment_block_start","pen.bmp","100","336","36","2","31","1","Acquisiton","2","31","1","left","33","36","0.6999999999999999556","0.2999999999999999889","IRCF","0","-1","-1","2","2","1","6","0","23","3","0.5"
"6.4.2","Reversal_Task","1","2021-09-27","19:49:17","fixation","Experiment_block_start","+","100","336","36","2","31","1","Acquisiton","2","31","1","left","33","36","0.6999999999999999556","0.2999999999999999889","IRCF","0","-1","-1","2","2","2","6","0","23","3","1"
"6.4.2","Reversal_Task","1","2021-09-27","19:49:17","choice","Experiment_block_start","pen.bmp","100","146","33","2","31","1","Acquisiton","2","31","2","right","36","33","0.6999999999999999556","0.2999999999999999889","IRCF","0","-1","-1","3","3","2","6","0","23","3","1"
"6.4.2","Reversal_Task","1","2021-09-27","19:49:17","fixation","Experiment_block_start","+","100","146","33","2","31","1","Acquisiton","2","31","2","right","36","33","0.6999999999999999556","0.2999999999999999889","IRCF","0","-1","-1","3","3","3","6","0","23","3","1.5"
"6.4.2","Reversal_Task","1","2021-09-27","19:49:17","choice","Experiment_block_start","pen.bmp","100","499","33","2","31","1","Acquisiton","2","31","1","left","33","36","0.6999999999999999556","0.2999999999999999889","CRCF","0","1","1","4","4","3","6","0","23","3","1.5"
"6.4.2","Reversal_Task","1","2021-09-27","19:49:17","fixation","Experiment_block_start","+","100","499","33","2","31","1","Acquisiton","2","31","1","left","33","36","0.6999999999999999556","0.2999999999999999889","CRCF","0","1","1","4","4","4","7","1","23","3.5","2"
"6.4.2","Reversal_Task","1","2021-09-27","19:49:17","choice","Experiment_block_start","pen.bmp","100","1415","33","2","31","1","Acquisiton","2","31","2","right","36","33","0.6999999999999999556","0.2999999999999999889","IRIF","0","-1","1","5","5","4","7","1","23","3.5","2"
"6.4.2","Reversal_Task","1","2021-09-27","19:49:17","fixation","Experiment_block_start","+","100","1415","33","2","31","1","Acquisiton","2","31","2","right","36","33","0.6999999999999999556","0.2999999999999999889","IRIF","0","-1","1","5","5","4","7","0","23","3.5","2"
"6.4.2","Reversal_Task","1","2021-09-27","19:49:17","choice","Experiment_block_start","pen.bmp","100","253","36","2","31","1","Acquisiton","2","31","2","right","36","33","0.6999999999999999556","0.2999999999999999889","CRCF","0","1","1","6","6","4","7","0","23","3.5","2"
"6.4.2","Reversal_Task","1","2021-09-27","19:49:17","fixation","Experiment_block_start","+","100","253","36","2","31","1","Acquisiton","2","31","2","right","36","33","0.6999999999999999556","0.2999999999999999889","CRCF","0","1","1","6","6","5","8","1","23","4","2.5"
"6.4.2","Reversal_Task","1","2021-09-27","19:49:17","choice","Experiment_block_start","pen.bmp","100","328","36","2","31","1","Acquisiton","2","31","2","right","36","33","0.6999999999999999556","0.2999999999999999889","CRIF","0","1","-1","7","7","5","8","1","23","4","2.5"
"6.4.2","Reversal_Task","1","2021-09-27","19:49:17","fixation","Experiment_block_start","+","100","328","36","2","31","1","Acquisiton","2","31","2","right","36","33","0.6999999999999999556","0.2999999999999999889","CRIF","0","1","-1","7","7","5","9","2","23","4.5","2.5"
"6.4.2","Reversal_Task","1","2021-09-27","19:49:17","choice","Experiment_block_start","pen.bmp","100","345","33","2","31","1","Acquisiton","2","31","2","right","36","33","0.6999999999999999556","0.2999999999999999889","IRIF","0","-1","1","8","8","5","9","2","23","4.5","2.5"
"6.4.2","Reversal_Task","1","2021-09-27","19:49:17","fixation","Experiment_block_start","+","100","345","33","2","31","1","Acquisiton","2","31","2","right","36","33","0.6999999999999999556","0.2999999999999999889","IRIF","0","-1","1","8","8","5","9","0","23","4.5","2.5"
"6.4.2","Reversal_Task","1","2021-09-27","19:49:17","choice","Experiment_block_start","pen.bmp","100","719","36","2","31","1","Acquisiton","2","31","1","left","33","36","0.6999999999999999556","0.2999999999999999889","IRIF","0","-1","1","9","9","5","9","0","23","4.5","2.5"
"6.4.2","Reversal_Task","1","2021-09-27","19:49:17","fixation","Experiment_block_start","+","100","719","36","2","31","1","Acquisiton","2","31","1","left","33","36","0.6999999999999999556","0.2999999999999999889","IRIF","0","-1","1","9","9","5","9","0","23","4.5","2.5"
"6.4.2","Reversal_Task","1","2021-09-27","19:49:17","choice","Experiment_block_start","pen.bmp","100","133","33","2","31","1","Acquisiton","2","31","2","right","36","33","0.6999999999999999556","0.2999999999999999889","IRIF","0","-1","1","10","10","5","9","0","23","4.5","2.5"
"6.4.2","Reversal_Task","1","2021-09-27","19:49:17","fixation","Experiment_block_start","+","100","133","33","2","31","1","Acquisiton","2","31","2","right","36","33","0.6999999999999999556","0.2999999999999999889","IRIF","0","-1","1","10","10","5","9","0","23","4.5","2.5"
"6.4.2","Reversal_Task","1","2021-09-27","19:49:17","choice","Experiment_block_start","pen.bmp","100","157","36","2","31","1","Acquisiton","2","31","1","left","33","36","0.6999999999999999556","0.2999999999999999889","IRIF","0","-1","1","11","11","5","9","0","23","4.5","2.5"
"6.4.2","Reversal_Task","1","2021-09-27","19:49:17","fixation","Experiment_block_start","+","100","157","36","2","31","1","Acquisiton","2","31","1","left","33","36","0.6999999999999999556","0.2999999999999999889","IRIF","0","-1","1","11","11","5","9","0","23","4.5","2.5"
"6.4.2","Reversal_Task","1","2021-09-27","19:49:17","choice","Experiment_block_start","pen.bmp","100","0","33","2","31","1","Acquisiton","2","31","1","left","33","36","0.6999999999999999556","0.2999999999999999889","CRCF","0","1","1","12","12","5","9","0","23","4.5","2.5"
"6.4.2","Reversal_Task","1","2021-09-27","19:49:17","fixation","Experiment_block_start","+","100","0","33","2","31","1","Acquisiton","2","31","1","left","33","36","0.6999999999999999556","0.2999999999999999889","CRCF","0","1","1","12","12","6","10","1","23","5","3"
"6.4.2","Reversal_Task","1","2021-09-27","19:49:17","choice","Experiment_block_start","pen.bmp","100","103","33","2","31","1","Acquisiton","2","31","1","left","33","36","0.6999999999999999556","0.2999999999999999889","CRCF","0","1","1","13","13","6","10","1","23","5","3"
"6.4.2","Reversal_Task","1","2021-09-27","19:49:17","fixation","Experiment_block_start","+","100","103","33","2","31","1","Acquisiton","2","31","1","left","33","36","0.6999999999999999556","0.2999999999999999889","CRCF","0","1","1","13","13","7","11","2","23","5.5","3.5"
"6.4.2","Reversal_Task","1","2021-09-27","19:49:17","choice","Experiment_block_start","pen.bmp","100","143","33","2","31","1","Acquisiton","2","31","1","left","33","36","0.6999999999999999556","0.2999999999999999889","CRCF","0","1","1","14","14","7","11","2","23","5.5","3.5"
"6.4.2","Reversal_Task","1","2021-09-27","19:49:17","fixation","Experiment_block_start","+","100","143","33","2","31","1","Acquisiton","2","31","1","left","33","36","0.6999999999999999556","0.2999999999999999889","CRCF","0","1","1","14","14","8","12","3","23","6","4"
"6.4.2","Reversal_Task","1","2021-09-27","19:49:17","choice","Experiment_block_start","pen.bmp","100","33","33","2","31","1","Acquisiton","2","31","1","left","33","36","0.6999999999999999556","0.2999999999999999889","CRIF","0","1","-1","15","15","8","12","3","23","6","4"
"6.4.2","Reversal_Task","1","2021-09-27","19:49:17","fixation","Experiment_block_start","+","100","33","33","2","31","1","Acquisiton","2","31","1","left","33","36","0.6999999999999999556","0.2999999999999999889","CRIF","0","1","-1","15","15","8","13","4","23","6.5","4"
"6.4.2","Reversal_Task","1","2021-09-27","19:49:17","choice","Experiment_block_start","pen.bmp","100","100","33","2","31","1","Acquisiton","2","31","1","left","33","36","0.6999999999999999556","0.2999999999999999889","CRIF","0","1","-1","16","16","8","13","4","23","6.5","4"
"6.4.2","Reversal_Task","1","2021-09-27","19:49:17","fixation","Experiment_block_start","+","100","100","33","2","31","1","Acquisiton","2","31","1","left","33","36","0.6999999999999999556","0.2999999999999999889","CRIF","0","1","-1","16","16","8","14","5","23","7","4"
"6.4.2","Reversal_Task","1","2021-09-27","19:49:17","choice","Experiment_block_start","pen.bmp","100","307","33","2","31","1","Acquisiton","2","31","1","left","33","36","0.6999999999999999556","0.2999999999999999889","CRCF","0","1","1","17","17","8","14","5","23","7","4"
"6.4.2","Reversal_Task","1","2021-09-27","19:49:17","fixation","Experiment_block_start","+","100","307","33","2","31","1","Acquisiton","2","31","1","left","33","36","0.6999999999999999556","0.2999999999999999889","CRCF","0","1","1","17","17","9","15","6","23","7.5","4.5"
"6.4.2","Reversal_Task","1","2021-09-27","19:49:17","choice","Experiment_block_start","pen.bmp","100","24","36","2","31","1","Acquisiton","2","31","2","right","36","33","0.6999999999999999556","0.2999999999999999889","CRIF","0","1","-1","18","18","9","15","6","23","7.5","4.5"
"6.4.2","Reversal_Task","1","2021-09-27","19:49:17","fixation","Experiment_block_start","+","100","24","36","2","31","1","Acquisiton","2","31","2","right","36","33","0.6999999999999999556","0.2999999999999999889","CRIF","0","1","-1","18","18","9","16","7","23","8","4.5"
"6.4.2","Reversal_Task","1","2021-09-27","19:49:17","choice","Experiment_block_start","pen.bmp","100","2","36","2","31","1","Acquisiton","2","31","2","right","36","33","0.6999999999999999556","0.2999999999999999889","CRCF","0","1","1","19","19","9","16","7","23","8","4.5"
"6.4.2","Reversal_Task","1","2021-09-27","19:49:17","fixation","Experiment_block_start","+","100","2","36","2","31","1","Acquisiton","2","31","2","right","36","33","0.6999999999999999556","0.2999999999999999889","CRCF","0","1","1","19","19","10","17","8","23","8.5","5"
"6.4.2","Reversal_Task","1","2021-09-27","19:49:17","choice","Experiment_block_start","pen.bmp","100","11","36","2","31","1","Acquisiton","2","31","2","right","36","33","0.6999999999999999556","0.2999999999999999889","CRCF","0","1","1","20","20","10","17","8","23","8.5","5"
"6.4.2","Reversal_Task","1","2021-09-27","19:49:17","fixation","Experiment_block_start","+","100","11","36","2","31","1","Acquisiton","2","31","2","right","36","33","0.6999999999999999556","0.2999999999999999889","CRCF","0","1","1","20","20","11","18","9","23","9","5.5"
"6.4.2","Reversal_Task","1","2021-09-27","19:49:17","choice","Experiment_block_start","pen.bmp","100","1","36","2","31","1","Acquisiton","2","31","1","left","33","36","0.6999999999999999556","0.2999999999999999889","IRIF","0","-1","1","21","21","11","18","9","23","9","5.5"
"6.4.2","Reversal_Task","1","2021-09-27","19:49:17","fixation","Experiment_block_start","+","100","1","36","2","31","1","Acquisiton","2","31","1","left","33","36","0.6999999999999999556","0.2999999999999999889","IRIF","0","-1","1","21","21","11","18","0","23","9","5.5"
"6.4.2","Reversal_Task","1","2021-09-27","19:49:17","choice","Experiment_block_start","pen.bmp","100","646","33","2","31","1","Acquisiton","2","31","1","left","33","36","0.6999999999999999556","0.2999999999999999889","CRCF","0","1","1","22","22","11","18","0","23","9","5.5"
"6.4.2","Reversal_Task","1","2021-09-27","19:49:17","fixation","Experiment_block_start","+","100","646","33","2","31","1","Acquisiton","2","31","1","left","33","36","0.6999999999999999556","0.2999999999999999889","CRCF","0","1","1","22","22","12","19","1","23","9.5","6"
"6.4.2","Reversal_Task","1","2021-09-27","19:49:17","choice","Experiment_block_start","pen.bmp","100","30","33","2","31","1","Acquisiton","2","31","1","left","33","36","0.6999999999999999556","0.2999999999999999889","CRCF","0","1","1","23","23","12","19","1","23","9.5","6"
"6.4.2","Reversal_Task","1","2021-09-27","19:49:17","fixation","Experiment_block_start","+","100","30","33","2","31","1","Acquisiton","2","31","1","left","33","36","0.6999999999999999556","0.2999999999999999889","CRCF","0","1","1","23","23","13","20","2","23","10","6.5"
"6.4.2","Reversal_Task","1","2021-09-27","19:49:17","choice","Experiment_block_start","keys.bmp","100","17","33","31","2","1","Reversal","31","2","1","left","33","36","0.6999999999999999556","0.2999999999999999889","CRCF","0","1","1","24","24","13","20","2","23","10","6.5"
"6.4.2","Reversal_Task","1","2021-09-27","19:49:17","fixation","Experiment_block_start","+","100","17","33","31","2","1","Reversal","31","2","1","left","33","36","0.6999999999999999556","0.2999999999999999889","CRCF","0","1","1","24","24","14","21","3","23","10.5","7"
"6.4.2","Reversal_Task","1","2021-09-27","19:49:17","choice","Experiment_block_start","keys.bmp","100","26","33","31","2","1","Reversal","31","2","1","left","33","36","0.6999999999999999556","0.2999999999999999889","CRIF","0","1","-1","25","25","14","21","3","23","10.5","7"
"6.4.2","Reversal_Task","1","2021-09-27","19:49:17","fixation","Experiment_block_start","+","100","26","33","31","2","1","Reversal","31","2","1","left","33","36","0.6999999999999999556","0.2999999999999999889","CRIF","0","1","-1","25","25","14","22","4","23","11","7"
"6.4.2","Reversal_Task","1","2021-09-27","19:49:17","choice","Experiment_block_start","keys.bmp","100","235","33","31","2","1","Reversal","31","2","2","right","36","33","0.6999999999999999556","0.2999999999999999889","IRIF","0","-1","1","26","26","14","22","4","23","11","7"
"6.4.2","Reversal_Task","1","2021-09-27","19:49:17","fixation","Experiment_block_start","+","100","235","33","31","2","1","Reversal","31","2","2","right","36","33","0.6999999999999999556","0.2999999999999999889","IRIF","0","-1","1","26","26","14","22","0","23","11","7"
"6.4.2","Reversal_Task","1","2021-09-27","19:49:17","choice","Experiment_block_start","keys.bmp","100","92","36","31","2","1","Reversal","31","2","2","right","36","33","0.6999999999999999556","0.2999999999999999889","CRCF","0","1","1","27","27","14","22","0","23","11","7"
"6.4.2","Reversal_Task","1","2021-09-27","19:49:17","fixation","Experiment_block_start","+","100","92","36","31","2","1","Reversal","31","2","2","right","36","33","0.6999999999999999556","0.2999999999999999889","CRCF","0","1","1","27","27","15","23","1","23","11.5","7.5"
"6.4.2","Reversal_Task","1","2021-09-27","19:49:17","choice","Experiment_block_start","keys.bmp","100","221","36","31","2","1","Reversal","31","2","2","right","36","33","0.6999999999999999556","0.2999999999999999889","CRCF","0","1","1","28","28","15","23","1","23","11.5","7.5"
"6.4.2","Reversal_Task","1","2021-09-27","19:49:17","fixation","Experiment_block_start","+","100","221","36","31","2","1","Reversal","31","2","2","right","36","33","0.6999999999999999556","0.2999999999999999889","CRCF","0","1","1","28","28","16","24","2","23","12","8"
"6.4.2","Reversal_Task","1","2021-09-27","19:49:17","choice","Experiment_block_start","keys.bmp","100","364","36","31","2","1","Reversal","31","2","2","right","36","33","0.6999999999999999556","0.2999999999999999889","CRIF","0","1","-1","29","29","16","24","2","23","12","8"
"6.4.2","Reversal_Task","1","2021-09-27","19:49:17","fixation","Experiment_block_start","+","100","364","36","31","2","1","Reversal","31","2","2","right","36","33","0.6999999999999999556","0.2999999999999999889","CRIF","0","1","-1","29","29","16","25","3","23","12.5","8"
"6.4.2","Reversal_Task","1","2021-09-27","19:49:17","choice","Experiment_block_start","keys.bmp","100","266","33","31","2","1","Reversal","31","2","1","left","33","36","0.6999999999999999556","0.2999999999999999889","CRCF","0","1","1","30","30","16","25","3","23","12.5","8"
"6.4.2","Reversal_Task","1","2021-09-27","19:49:17","fixation","Experiment_block_start","+","100","266","33","31","2","1","Reversal","31","2","1","left","33","36","0.6999999999999999556","0.2999999999999999889","CRCF","0","1","1","30","30","17","26","4","23","13","8.5"
"6.4.2","Reversal_Task","1","2021-09-27","19:49:17","choice","Experiment_block_start","keys.bmp","100","1102","33","31","2","1","Reversal","31","2","2","right","36","33","0.6999999999999999556","0.2999999999999999889","IRIF","0","-1","1","31","31","17","26","4","23","13","8.5"
"6.4.2","Reversal_Task","1","2021-09-27","19:49:17","fixation","Experiment_block_start","+","100","1102","33","31","2","1","Reversal","31","2","2","right","36","33","0.6999999999999999556","0.2999999999999999889","IRIF","0","-1","1","31","31","17","26","0","23","13","8.5"
"6.4.2","Reversal_Task","1","2021-09-27","19:49:17","choice","Experiment_block_start","keys.bmp","100","234","36","31","2","1","Reversal","31","2","2","right","36","33","0.6999999999999999556","0.2999999999999999889","CRIF","0","1","-1","32","32","17","26","0","23","13","8.5"
"6.4.2","Reversal_Task","1","2021-09-27","19:49:17","fixation","Experiment_block_start","+","100","234","36","31","2","1","Reversal","31","2","2","right","36","33","0.6999999999999999556","0.2999999999999999889","CRIF","0","1","-1","32","32","17","27","1","23","13.5","8.5"
"6.4.2","Reversal_Task","1","2021-09-27","19:49:17","choice","Experiment_block_start","keys.bmp","100","28","36","31","2","1","Reversal","31","2","2","right","36","33","0.6999999999999999556","0.2999999999999999889","CRCF","0","1","1","33","33","17","27","1","23","13.5","8.5"
"6.4.2","Reversal_Task","1","2021-09-27","19:49:17","fixation","Experiment_block_start","+","100","28","36","31","2","1","Reversal","31","2","2","right","36","33","0.6999999999999999556","0.2999999999999999889","CRCF","0","1","1","33","33","18","28","2","23","14","9"
"6.4.2","Reversal_Task","1","2021-09-27","19:49:17","choice","Experiment_block_start","keys.bmp","100","110","33","31","2","1","Reversal","31","2","1","left","33","36","0.6999999999999999556","0.2999999999999999889","CRCF","0","1","1","34","34","18","28","2","23","14","9"
"6.4.2","Reversal_Task","1","2021-09-27","19:49:17","fixation","Experiment_block_start","+","100","110","33","31","2","1","Reversal","31","2","1","left","33","36","0.6999999999999999556","0.2999999999999999889","CRCF","0","1","1","34","34","19","29","3","23","14.5","9.5"
"6.4.2","Reversal_Task","1","2021-09-27","19:49:17","choice","Experiment_block_start","keys.bmp","100","151","36","31","2","1","Reversal","31","2","2","right","36","33","0.6999999999999999556","0.2999999999999999889","CRCF","0","1","1","35","35","19","29","3","23","14.5","9.5"
"6.4.2","Reversal_Task","1","2021-09-27","19:49:17","fixation","Experiment_block_start","+","100","151","36","31","2","1","Reversal","31","2","2","right","36","33","0.6999999999999999556","0.2999999999999999889","CRCF","0","1","1","35","35","20","30","4","23","15","10"
"6.4.2","Reversal_Task","1","2021-09-27","19:49:17","choice","Experiment_block_start","keys.bmp","100","115","36","31","2","1","Reversal","31","2","2","right","36","33","0.6999999999999999556","0.2999999999999999889","CRIF","0","1","-1","36","36","20","30","4","23","15","10"
"6.4.2","Reversal_Task","1","2021-09-27","19:49:17","fixation","Experiment_block_start","+","100","115","36","31","2","1","Reversal","31","2","2","right","36","33","0.6999999999999999556","0.2999999999999999889","CRIF","0","1","-1","36","36","20","31","5","23","15.5","10"
"6.4.2","Reversal_Task","1","2021-09-27","19:49:17","choice","Experiment_block_start","keys.bmp","100","89","33","31","2","1","Reversal","31","2","2","right","36","33","0.6999999999999999556","0.2999999999999999889","IRIF","0","-1","1","37","37","20","31","5","23","15.5","10"
"6.4.2","Reversal_Task","1","2021-09-27","19:49:17","fixation","Experiment_block_start","+","100","89","33","31","2","1","Reversal","31","2","2","right","36","33","0.6999999999999999556","0.2999999999999999889","IRIF","0","-1","1","37","37","20","31","0","23","15.5","10"
"6.4.2","Reversal_Task","1","2021-09-27","19:49:17","choice","Experiment_block_start","keys.bmp","100","136","33","31","2","1","Reversal","31","2","1","left","33","36","0.6999999999999999556","0.2999999999999999889","CRIF","0","1","-1","38","38","20","31","0","23","15.5","10"
"6.4.2","Reversal_Task","1","2021-09-27","19:49:17","fixation","Experiment_block_start","+","100","136","33","31","2","1","Reversal","31","2","1","left","33","36","0.6999999999999999556","0.2999999999999999889","CRIF","0","1","-1","38","38","20","32","1","23","16","10"
"6.4.2","Reversal_Task","1","2021-09-27","19:49:17","choice","Experiment_block_start","keys.bmp","100","69","36","31","2","1","Reversal","31","2","1","left","33","36","0.6999999999999999556","0.2999999999999999889","IRIF","0","-1","1","39","39","20","32","1","23","16","10"
"6.4.2","Reversal_Task","1","2021-09-27","19:49:17","fixation","Experiment_block_start","+","100","69","36","31","2","1","Reversal","31","2","1","left","33","36","0.6999999999999999556","0.2999999999999999889","IRIF","0","-1","1","39","39","20","32","0","23","16","10"
"6.4.2","Reversal_Task","1","2021-09-27","19:49:17","choice","Experiment_block_start","keys.bmp","100","31","33","31","2","1","Reversal","31","2","1","left","33","36","0.6999999999999999556","0.2999999999999999889","CRCF","0","1","1","40","40","20","32","0","23","16","10"
"6.4.2","Reversal_Task","1","2021-09-27","19:49:17","fixation","Experiment_block_start","+","100","31","33","31","2","1","Reversal","31","2","1","left","33","36","0.6999999999999999556","0.2999999999999999889","CRCF","0","1","1","40","40","21","33","1","23","16.5","10.5"
"6.4.2","Reversal_Task","1","2021-09-27","19:49:17","reset_trial","Experiment_block_start","Press SPACE to continue","100","31","33","31","2","2","Reversal","31","2","1","left","33","36","0.6999999999999999556","0.2999999999999999889","CRCF","0","1","1","0","40","21","33","0","24","16.5","10.5"
"6.4.2","Reversal_Task","1","2021-09-27","19:49:17","choice","Experiment_block_start","snail.bmp","100","544","33","35","18","2","Acquisiton","35","18","2","right","36","33","0.6999999999999999556","0.2999999999999999889","IRIF","0","-1","1","1","41","21","33","0","24","16.5","10.5"
"6.4.2","Reversal_Task","1","2021-09-27","19:49:17","fixation","Experiment_block_start","+","100","544","33","35","18","2","Acquisiton","35","18","2","right","36","33","0.6999999999999999556","0.2999999999999999889","IRIF","0","-1","1","1","41","21","33","0","24","16.5","10.5"
"6.4.2","Reversal_Task","1","2021-09-27","19:49:17","choice","Experiment_block_start","snail.bmp","100","114","36","35","18","2","Acquisiton","35","18","1","left","33","36","0.6999999999999999556","0.2999999999999999889","IRIF","0","-1","1","2","42","21","33","0","24","16.5","10.5"
"6.4.2","Reversal_Task","1","2021-09-27","19:49:17","fixation","Experiment_block_start","+","100","114","36","35","18","2","Acquisiton","35","18","1","left","33","36","0.6999999999999999556","0.2999999999999999889","IRIF","0","-1","1","2","42","21","33","0","24","16.5","10.5"
"6.4.2","Reversal_Task","1","2021-09-27","19:49:17","choice","Experiment_block_start","snail.bmp","100","373","36","35","18","2","Acquisiton","35","18","2","right","36","33","0.6999999999999999556","0.2999999999999999889","CRIF","0","1","-1","3","43","21","33","0","24","16.5","10.5"
"6.4.2","Reversal_Task","1","2021-09-27","19:49:17","fixation","Experiment_block_start","+","100","373","36","35","18","2","Acquisiton","35","18","2","right","36","33","0.6999999999999999556","0.2999999999999999889","CRIF","0","1","-1","3","43","21","34","1","24","17","10.5"
"6.4.2","Reversal_Task","1","2021-09-27","19:49:17","choice","Experiment_block_start","snail.bmp","100","300","33","35","18","2","Acquisiton","35","18","2","right","36","33","0.6999999999999999556","0.2999999999999999889","IRIF","0","-1","1","4","44","21","34","1","24","17","10.5"
"6.4.2","Reversal_Task","1","2021-09-27","19:49:17","fixation","Experiment_block_start","+","100","300","33","35","18","2","Acquisiton","35","18","2","right","36","33","0.6999999999999999556","0.2999999999999999889","IRIF","0","-1","1","4","44","21","34","0","24","17","10.5"
"6.4.2","Reversal_Task","1","2021-09-27","19:49:17","choice","Experiment_block_start","snail.bmp","100","231","36","35","18","2","Acquisiton","35","18","2","right","36","33","0.6999999999999999556","0.2999999999999999889","CRCF","0","1","1","5","45","21","34","0","24","17","10.5"
"6.4.2","Reversal_Task","1","2021-09-27","19:49:17","fixation","Experiment_block_start","+","100","231","36","35","18","2","Acquisiton","35","18","2","right","36","33","0.6999999999999999556","0.2999999999999999889","CRCF","0","1","1","5","45","22","35","1","24","17.5","11"
"6.4.2","Reversal_Task","1","2021-09-27","19:49:17","choice","Experiment_block_start","snail.bmp","100","453","33","35","18","2","Acquisiton","35","18","1","left","33","36","0.6999999999999999556","0.2999999999999999889","CRCF","0","1","1","6","46","22","35","1","24","17.5","11"
"6.4.2","Reversal_Task","1","2021-09-27","19:49:17","fixation","Experiment_block_start","+","100","453","33","35","18","2","Acquisiton","35","18","1","left","33","36","0.6999999999999999556","0.2999999999999999889","CRCF","0","1","1","6","46","23","36","2","24","18","11.5"
"6.4.2","Reversal_Task","1","2021-09-27","19:49:17","choice","Experiment_block_start","snail.bmp","100","381","36","35","18","2","Acquisiton","35","18","2","right","36","33","0.6999999999999999556","0.2999999999999999889","CRCF","0","1","1","7","47","23","36","2","24","18","11.5"
"6.4.2","Reversal_Task","1","2021-09-27","19:49:17","fixation","Experiment_block_start","+","100","381","36","35","18","2","Acquisiton","35","18","2","right","36","33","0.6999999999999999556","0.2999999999999999889","CRCF","0","1","1","7","47","24","37","3","24","18.5","12"
"6.4.2","Reversal_Task","1","2021-09-27","19:49:17","choice","Experiment_block_start","snail.bmp","100","354","36","35","18","2","Acquisiton","35","18","2","right","36","33","0.6999999999999999556","0.2999999999999999889","CRCF","0","1","1","8","48","24","37","3","24","18.5","12"
"6.4.2","Reversal_Task","1","2021-09-27","19:49:17","fixation","Experiment_block_start","+","100","354","36","35","18","2","Acquisiton","35","18","2","right","36","33","0.6999999999999999556","0.2999999999999999889","CRCF","0","1","1","8","48","25","38","4","24","19","12.5"
"6.4.2","Reversal_Task","1","2021-09-27","19:49:17","choice","Experiment_block_start","snail.bmp","100","362","33","35","18","2","Acquisiton","35","18","1","left","33","36","0.6999999999999999556","0.2999999999999999889","CRIF","0","1","-1","9","49","25","38","4","24","19","12.5"
"6.4.2","Reversal_Task","1","2021-09-27","19:49:17","fixation","Experiment_block_start","+","100","362","33","35","18","2","Acquisiton","35","18","1","left","33","36","0.6999999999999999556","0.2999999999999999889","CRIF","0","1","-1","9","49","25","39","5","24","19.5","12.5"
"6.4.2","Reversal_Task","1","2021-09-27","19:49:17","choice","Experiment_block_start","snail.bmp","100","285","36","35","18","2","Acquisiton","35","18","2","right","36","33","0.6999999999999999556","0.2999999999999999889","CRIF","0","1","-1","10","50","25","39","5","24","19.5","12.5"
"6.4.2","Reversal_Task","1","2021-09-27","19:49:17","fixation","Experiment_block_start","+","100","285","36","35","18","2","Acquisiton","35","18","2","right","36","33","0.6999999999999999556","0.2999999999999999889","CRIF","0","1","-1","10","50","25","40","6","24","20","12.5"
"6.4.2","Reversal_Task","1","2021-09-27","19:49:17","choice","Experiment_block_start","snail.bmp","100","240","36","35","18","2","Acquisiton","35","18","2","right","36","33","0.6999999999999999556","0.2999999999999999889","CRCF","0","1","1","11","51","25","40","6","24","20","12.5"
"6.4.2","Reversal_Task","1","2021-09-27","19:49:17","fixation","Experiment_block_start","+","100","240","36","35","18","2","Acquisiton","35","18","2","right","36","33","0.6999999999999999556","0.2999999999999999889","CRCF","0","1","1","11","51","26","41","7","24","20.5","13"
"6.4.2","Reversal_Task","1","2021-09-27","19:49:17","choice","Experiment_block_start","snail.bmp","100","291","36","35","18","2","Acquisiton","35","18","1","left","33","36","0.6999999999999999556","0.2999999999999999889","IRCF","0","-1","-1","12","52","26","41","7","24","20.5","13"
"6.4.2","Reversal_Task","1","2021-09-27","19:49:17","fixation","Experiment_block_start","+","100","291","36","35","18","2","Acquisiton","35","18","1","left","33","36","0.6999999999999999556","0.2999999999999999889","IRCF","0","-1","-1","12","52","27","41","0","24","20.5","13.5"
"6.4.2","Reversal_Task","1","2021-09-27","19:49:17","choice","Experiment_block_start","snail.bmp","100","305","33","35","18","2","Acquisiton","35","18","2","right","36","33","0.6999999999999999556","0.2999999999999999889","IRIF","0","-1","1","13","53","27","41","0","24","20.5","13.5"
"6.4.2","Reversal_Task","1","2021-09-27","19:49:17","fixation","Experiment_block_start","+","100","305","33","35","18","2","Acquisiton","35","18","2","right","36","33","0.6999999999999999556","0.2999999999999999889","IRIF","0","-1","1","13","53","27","41","0","24","20.5","13.5"
"6.4.2","Reversal_Task","1","2021-09-27","19:49:17","choice","Experiment_block_start","snail.bmp","100","352","33","35","18","2","Acquisiton","35","18","1","left","33","36","0.6999999999999999556","0.2999999999999999889","CRCF","0","1","1","14","54","27","41","0","24","20.5","13.5"
"6.4.2","Reversal_Task","1","2021-09-27","19:49:17","fixation","Experiment_block_start","+","100","352","33","35","18","2","Acquisiton","35","18","1","left","33","36","0.6999999999999999556","0.2999999999999999889","CRCF","0","1","1","14","54","28","42","1","24","21","14"
"6.4.2","Reversal_Task","1","2021-09-27","19:49:17","choice","Experiment_block_start","snail.bmp","100","355","33","35","18","2","Acquisiton","35","18","1","left","33","36","0.6999999999999999556","0.2999999999999999889","CRCF","0","1","1","15","55","28","42","1","24","21","14"
"6.4.2","Reversal_Task","1","2021-09-27","19:49:17","fixation","Experiment_block_start","+","100","355","33","35","18","2","Acquisiton","35","18","1","left","33","36","0.6999999999999999556","0.2999999999999999889","CRCF","0","1","1","15","55","29","43","2","24","21.5","14.5"
"6.4.2","Reversal_Task","1","2021-09-27","19:49:17","choice","Experiment_block_start","snail.bmp","100","367","36","35","18","2","Acquisiton","35","18","2","right","36","33","0.6999999999999999556","0.2999999999999999889","CRCF","0","1","1","16","56","29","43","2","24","21.5","14.5"
"6.4.2","Reversal_Task","1","2021-09-27","19:49:17","fixation","Experiment_block_start","+","100","367","36","35","18","2","Acquisiton","35","18","2","right","36","33","0.6999999999999999556","0.2999999999999999889","CRCF","0","1","1","16","56","30","44","3","24","22","15"
"6.4.2","Reversal_Task","1","2021-09-27","19:49:17","choice","Experiment_block_start","snail.bmp","100","388","33","35","18","2","Acquisiton","35","18","1","left","33","36","0.6999999999999999556","0.2999999999999999889","CRCF","0","1","1","17","57","30","44","3","24","22","15"
"6.4.2","Reversal_Task","1","2021-09-27","19:49:17","fixation","Experiment_block_start","+","100","388","33","35","18","2","Acquisiton","35","18","1","left","33","36","0.6999999999999999556","0.2999999999999999889","CRCF","0","1","1","17","57","31","45","4","24","22.5","15.5"
"6.4.2","Reversal_Task","1","2021-09-27","19:49:17","choice","Experiment_block_start","snail.bmp","100","254","36","35","18","2","Acquisiton","35","18","2","right","36","33","0.6999999999999999556","0.2999999999999999889","CRIF","0","1","-1","18","58","31","45","4","24","22.5","15.5"
"6.4.2","Reversal_Task","1","2021-09-27","19:49:17","fixation","Experiment_block_start","+","100","254","36","35","18","2","Acquisiton","35","18","2","right","36","33","0.6999999999999999556","0.2999999999999999889","CRIF","0","1","-1","18","58","31","46","5","24","23","15.5"
"6.4.2","Reversal_Task","1","2021-09-27","19:49:17","choice","Experiment_block_start","snail.bmp","100","326","36","35","18","2","Acquisiton","35","18","1","left","33","36","0.6999999999999999556","0.2999999999999999889","IRIF","0","-1","1","19","59","31","46","5","24","23","15.5"
"6.4.2","Reversal_Task","1","2021-09-27","19:49:17","fixation","Experiment_block_start","+","100","326","36","35","18","2","Acquisiton","35","18","1","left","33","36","0.6999999999999999556","0.2999999999999999889","IRIF","0","-1","1","19","59","31","46","0","24","23","15.5"
"6.4.2","Reversal_Task","1","2021-09-27","19:49:17","choice","Experiment_block_start","snail.bmp","100","208","33","35","18","2","Acquisiton","35","18","1","left","33","36","0.6999999999999999556","0.2999999999999999889","CRCF","0","1","1","20","60","31","46","0","24","23","15.5"
"6.4.2","Reversal_Task","1","2021-09-27","19:49:17","fixation","Experiment_block_start","+","100","208","33","35","18","2","Acquisiton","35","18","1","left","33","36","0.6999999999999999556","0.2999999999999999889","CRCF","0","1","1","20","60","32","47","1","24","23.5","16"
"6.4.2","Reversal_Task","1","2021-09-27","19:49:17","choice","Experiment_block_start","snail.bmp","100","287","36","35","18","2","Acquisiton","35","18","1","left","33","36","0.6999999999999999556","0.2999999999999999889","IRIF","0","-1","1","21","61","32","47","1","24","23.5","16"
"6.4.2","Reversal_Task","1","2021-09-27","19:49:17","fixation","Experiment_block_start","+","100","287","36","35","18","2","Acquisiton","35","18","1","left","33","36","0.6999999999999999556","0.2999999999999999889","IRIF","0","-1","1","21","61","32","47","0","24","23.5","16"
"6.4.2","Reversal_Task","1","2021-09-27","19:49:17","choice","Experiment_block_start","snail.bmp","100","425","36","35","18","2","Acquisiton","35","18","2","right","36","33","0.6999999999999999556","0.2999999999999999889","CRIF","0","1","-1","22","62","32","47","0","24","23.5","16"
"6.4.2","Reversal_Task","1","2021-09-27","19:49:17","fixation","Experiment_block_start","+","100","425","36","35","18","2","Acquisiton","35","18","2","right","36","33","0.6999999999999999556","0.2999999999999999889","CRIF","0","1","-1","22","62","32","48","1","24","24","16"
"6.4.2","Reversal_Task","1","2021-09-27","19:49:17","choice","Experiment_block_start","snail.bmp","100","242","33","35","18","2","Acquisiton","35","18","1","left","33","36","0.6999999999999999556","0.2999999999999999889","CRCF","0","1","1","23","63","32","48","1","24","24","16"
"6.4.2","Reversal_Task","1","2021-09-27","19:49:17","fixation","Experiment_block_start","+","100","242","33","35","18","2","Acquisiton","35","18","1","left","33","36","0.6999999999999999556","0.2999999999999999889","CRCF","0","1","1","23","63","33","49","2","24","24.5","16.5"
"6.4.2","Reversal_Task","1","2021-09-27","19:49:17","choice","Experiment_block_start","snail.bmp","100","293","36","35","18","2","Acquisiton","35","18","2","right","36","33","0.6999999999999999556","0.2999999999999999889","CRCF","0","1","1","24","64","33","49","2","24","24.5","16.5"
"6.4.2","Reversal_Task","1","2021-09-27","19:49:17","fixation","Experiment_block_start","+","100","293","36","35","18","2","Acquisiton","35","18","2","right","36","33","0.6999999999999999556","0.2999999999999999889","CRCF","0","1","1","24","64","34","50","3","24","25","17"
"6.4.2","Reversal_Task","1","2021-09-27","19:49:17","choice","Experiment_block_start","cactus.bmp","100","220","33","18","35","2","Reversal","18","35","1","left","33","36","0.6999999999999999556","0.2999999999999999889","CRCF","0","1","1","25","65","34","50","3","24","25","17"
"6.4.2","Reversal_Task","1","2021-09-27","19:49:17","fixation","Experiment_block_start","+","100","220","33","18","35","2","Reversal","18","35","1","left","33","36","0.6999999999999999556","0.2999999999999999889","CRCF","0","1","1","25","65","35","51","4","24","25.5","17.5"
"6.4.2","Reversal_Task","1","2021-09-27","19:49:17","choice","Experiment_block_start","cactus.bmp","100","248","36","18","35","2","Reversal","18","35","2","right","36","33","0.6999999999999999556","0.2999999999999999889","CRIF","0","1","-1","26","66","35","51","4","24","25.5","17.5"
"6.4.2","Reversal_Task","1","2021-09-27","19:49:17","fixation","Experiment_block_start","+","100","248","36","18","35","2","Reversal","18","35","2","right","36","33","0.6999999999999999556","0.2999999999999999889","CRIF","0","1","-1","26","66","35","52","5","24","26","17.5"
"6.4.2","Reversal_Task","1","2021-09-27","19:49:17","choice","Experiment_block_start","cactus.bmp","100","314","33","18","35","2","Reversal","18","35","2","right","36","33","0.6999999999999999556","0.2999999999999999889","IRIF","0","-1","1","27","67","35","52","5","24","26","17.5"
"6.4.2","Reversal_Task","1","2021-09-27","19:49:17","fixation","Experiment_block_start","+","100","314","33","18","35","2","Reversal","18","35","2","right","36","33","0.6999999999999999556","0.2999999999999999889","IRIF","0","-1","1","27","67","35","52","0","24","26","17.5"
"6.4.2","Reversal_Task","1","2021-09-27","19:49:17","choice","Experiment_block_start","cactus.bmp","100","231","33","18","35","2","Reversal","18","35","1","left","33","36","0.6999999999999999556","0.2999999999999999889","CRCF","0","1","1","28","68","35","52","0","24","26","17.5"
"6.4.2","Reversal_Task","1","2021-09-27","19:49:17","fixation","Experiment_block_start","+","100","231","33","18","35","2","Reversal","18","35","1","left","33","36","0.6999999999999999556","0.2999999999999999889","CRCF","0","1","1","28","68","36","53","1","24","26.5","18"
"6.4.2","Reversal_Task","1","2021-09-27","19:49:17","choice","Experiment_block_start","cactus.bmp","100","314","36","18","35","2","Reversal","18","35","2","right","36","33","0.6999999999999999556","0.2999999999999999889","CRCF","0","1","1","29","69","36","53","1","24","26.5","18"
"6.4.2","Reversal_Task","1","2021-09-27","19:49:17","fixation","Experiment_block_start","+","100","314","36","18","35","2","Reversal","18","35","2","right","36","33","0.6999999999999999556","0.2999999999999999889","CRCF","0","1","1","29","69","37","54","2","24","27","18.5"
"6.4.2","Reversal_Task","1","2021-09-27","19:49:17","choice","Experiment_block_start","cactus.bmp","100","193","33","18","35","2","Reversal","18","35","2","right","36","33","0.6999999999999999556","0.2999999999999999889","IRIF","0","-1","1","30","70","37","54","2","24","27","18.5"
"6.4.2","Reversal_Task","1","2021-09-27","19:49:17","fixation","Experiment_block_start","+","100","193","33","18","35","2","Reversal","18","35","2","right","36","33","0.6999999999999999556","0.2999999999999999889","IRIF","0","-1","1","30","70","37","54","0","24","27","18.5"
"6.4.2","Reversal_Task","1","2021-09-27","19:49:17","choice","Experiment_block_start","cactus.bmp","100","296","33","18","35","2","Reversal","18","35","2","right","36","33","0.6999999999999999556","0.2999999999999999889","IRCF","0","-1","-1","31","71","37","54","0","24","27","18.5"
"6.4.2","Reversal_Task","1","2021-09-27","19:49:17","fixation","Experiment_block_start","+","100","296","33","18","35","2","Reversal","18","35","2","right","36","33","0.6999999999999999556","0.2999999999999999889","IRCF","0","-1","-1","31","71","38","54","0","24","27","19"
"6.4.2","Reversal_Task","1","2021-09-27","19:49:17","choice","Experiment_block_start","cactus.bmp","100","429","33","18","35","2","Reversal","18","35","2","right","36","33","0.6999999999999999556","0.2999999999999999889","IRIF","0","-1","1","32","72","38","54","0","24","27","19"
"6.4.2","Reversal_Task","1","2021-09-27","19:49:17","fixation","Experiment_block_start","+","100","429","33","18","35","2","Reversal","18","35","2","right","36","33","0.6999999999999999556","0.2999999999999999889","IRIF","0","-1","1","32","72","38","54","0","24","27","19"
"6.4.2","Reversal_Task","1","2021-09-27","19:49:17","choice","Experiment_block_start","cactus.bmp","100","285","36","18","35","2","Reversal","18","35","2","right","36","33","0.6999999999999999556","0.2999999999999999889","CRIF","0","1","-1","33","73","38","54","0","24","27","19"
"6.4.2","Reversal_Task","1","2021-09-27","19:49:17","fixation","Experiment_block_start","+","100","285","36","18","35","2","Reversal","18","35","2","right","36","33","0.6999999999999999556","0.2999999999999999889","CRIF","0","1","-1","33","73","38","55","1","24","27.5","19"
"6.4.2","Reversal_Task","1","2021-09-27","19:49:17","choice","Experiment_block_start","cactus.bmp","100","218","33","18","35","2","Reversal","18","35","2","right","36","33","0.6999999999999999556","0.2999999999999999889","IRIF","0","-1","1","34","74","38","55","1","24","27.5","19"
"6.4.2","Reversal_Task","1","2021-09-27","19:49:17","fixation","Experiment_block_start","+","100","218","33","18","35","2","Reversal","18","35","2","right","36","33","0.6999999999999999556","0.2999999999999999889","IRIF","0","-1","1","34","74","38","55","0","24","27.5","19"
"6.4.2","Reversal_Task","1","2021-09-27","19:49:17","choice","Experiment_block_start","cactus.bmp","100","212","36","18","35","2","Reversal","18","35","1","left","33","36","0.6999999999999999556","0.2999999999999999889","IRIF","0","-1","1","35","75","38","55","0","24","27.5","19"
"6.4.2","Reversal_Task","1","2021-09-27","19:49:17","fixation","Experiment_block_start","+","100","212","36","18","35","2","Reversal","18","35","1","left","33","36","0.6999999999999999556","0.2999999999999999889","IRIF","0","-1","1","35","75","38","55","0","24","27.5","19"
"6.4.2","Reversal_Task","1","2021-09-27","19:49:17","choice","Experiment_block_start","cactus.bmp","100","400","36","18","35","2","Reversal","18","35","2","right","36","33","0.6999999999999999556","0.2999999999999999889","CRIF","0","1","-1","36","76","38","55","0","24","27.5","19"
"6.4.2","Reversal_Task","1","2021-09-27","19:49:17","fixation","Experiment_block_start","+","100","400","36","18","35","2","Reversal","18","35","2","right","36","33","0.6999999999999999556","0.2999999999999999889","CRIF","0","1","-1","36","76","38","56","1","24","28","19"
"6.4.2","Reversal_Task","1","2021-09-27","19:49:17","choice","Experiment_block_start","cactus.bmp","100","205","33","18","35","2","Reversal","18","35","1","left","33","36","0.6999999999999999556","0.2999999999999999889","CRIF","0","1","-1","37","77","38","56","1","24","28","19"
"6.4.2","Reversal_Task","1","2021-09-27","19:49:17","fixation","Experiment_block_start","+","100","205","33","18","35","2","Reversal","18","35","1","left","33","36","0.6999999999999999556","0.2999999999999999889","CRIF","0","1","-1","37","77","38","57","2","24","28.5","19"
"6.4.2","Reversal_Task","1","2021-09-27","19:49:17","choice","Experiment_block_start","cactus.bmp","100","421","33","18","35","2","Reversal","18","35","2","right","36","33","0.6999999999999999556","0.2999999999999999889","IRCF","0","-1","-1","38","78","38","57","2","24","28.5","19"
"6.4.2","Reversal_Task","1","2021-09-27","19:49:17","fixation","Experiment_block_start","+","100","421","33","18","35","2","Reversal","18","35","2","right","36","33","0.6999999999999999556","0.2999999999999999889","IRCF","0","-1","-1","38","78","39","57","0","24","28.5","19.5"
"6.4.2","Reversal_Task","1","2021-09-27","19:49:17","choice","Experiment_block_start","cactus.bmp","100","235","36","18","35","2","Reversal","18","35","1","left","33","36","0.6999999999999999556","0.2999999999999999889","IRIF","0","-1","1","39","79","39","57","0","24","28.5","19.5"
"6.4.2","Reversal_Task","1","2021-09-27","19:49:17","fixation","Experiment_block_start","+","100","235","36","18","35","2","Reversal","18","35","1","left","33","36","0.6999999999999999556","0.2999999999999999889","IRIF","0","-1","1","39","79","39","57","0","24","28.5","19.5"
"6.4.2","Reversal_Task","1","2021-09-27","19:49:17","choice","Experiment_block_start","cactus.bmp","100","290","36","18","35","2","Reversal","18","35","1","left","33","36","0.6999999999999999556","0.2999999999999999889","IRIF","0","-1","1","40","80","39","57","0","24","28.5","19.5"
"6.4.2","Reversal_Task","1","2021-09-27","19:49:17","fixation","Experiment_block_start","+","100","290","36","18","35","2","Reversal","18","35","1","left","33","36","0.6999999999999999556","0.2999999999999999889","IRIF","0","-1","1","40","80","39","57","0","24","28.5","19.5"
"6.4.2","Reversal_Task","1","2021-09-27","19:49:17","reset_trial","Experiment_block_start","Press SPACE to continue","100","290","36","18","35","3","Reversal","18","35","1","left","33","36","0.6999999999999999556","0.2999999999999999889","IRIF","0","-1","1","0","80","39","57","0","26","28.5","19.5"
"6.4.2","Reversal_Task","1","2021-09-27","19:49:17","choice","Experiment_block_start","telescope.bmp","100","345","33","21","7","3","Acquisiton","21","7","1","left","33","36","0.6999999999999999556","0.2999999999999999889","CRIF","0","1","-1","1","81","39","57","0","26","28.5","19.5"
"6.4.2","Reversal_Task","1","2021-09-27","19:49:17","fixation","Experiment_block_start","+","100","345","33","21","7","3","Acquisiton","21","7","1","left","33","36","0.6999999999999999556","0.2999999999999999889","CRIF","0","1","-1","1","81","39","58","1","26","29","19.5"
"6.4.2","Reversal_Task","1","2021-09-27","19:49:17","choice","Experiment_block_start","telescope.bmp","100","215","36","21","7","3","Acquisiton","21","7","1","left","33","36","0.6999999999999999556","0.2999999999999999889","IRIF","0","-1","1","2","82","39","58","1","26","29","19.5"
"6.4.2","Reversal_Task","1","2021-09-27","19:49:17","fixation","Experiment_block_start","+","100","215","36","21","7","3","Acquisiton","21","7","1","left","33","36","0.6999999999999999556","0.2999999999999999889","IRIF","0","-1","1","2","82","39","58","0","26","29","19.5"
"6.4.2","Reversal_Task","1","2021-09-27","19:49:17","choice","Experiment_block_start","telescope.bmp","100","116","33","21","7","3","Acquisiton","21","7","1","left","33","36","0.6999999999999999556","0.2999999999999999889","CRCF","0","1","1","3","83","39","58","0","26","29","19.5"
"6.4.2","Reversal_Task","1","2021-09-27","19:49:17","fixation","Experiment_block_start","+","100","116","33","21","7","3","Acquisiton","21","7","1","left","33","36","0.6999999999999999556","0.2999999999999999889","CRCF","0","1","1","3","83","40","59","1","26","29.5","20"
"6.4.2","Reversal_Task","1","2021-09-27","19:49:17","choice","Experiment_block_start","telescope.bmp","100","122","36","21","7","3","Acquisiton","21","7","2","right","36","33","0.6999999999999999556","0.2999999999999999889","CRCF","0","1","1","4","84","40","59","1","26","29.5","20"
"6.4.2","Reversal_Task","1","2021-09-27","19:49:17","fixation","Experiment_block_start","+","100","122","36","21","7","3","Acquisiton","21","7","2","right","36","33","0.6999999999999999556","0.2999999999999999889","CRCF","0","1","1","4","84","41","60","2","26","30","20.5"
"6.4.2","Reversal_Task","1","2021-09-27","19:49:17","choice","Experiment_block_start","telescope.bmp","100","167","33","21","7","3","Acquisiton","21","7","2","right","36","33","0.6999999999999999556","0.2999999999999999889","IRIF","0","-1","1","5","85","41","60","2","26","30","20.5"
"6.4.2","Reversal_Task","1","2021-09-27","19:49:17","fixation","Experiment_block_start","+","100","167","33","21","7","3","Acquisiton","21","7","2","right","36","33","0.6999999999999999556","0.2999999999999999889","IRIF","0","-1","1","5","85","41","60","0","26","30","20.5"
"6.4.2","Reversal_Task","1","2021-09-27","19:49:17","choice","Experiment_block_start","telescope.bmp","100","115","36","21","7","3","Acquisiton","21","7","2","right","36","33","0.6999999999999999556","0.2999999999999999889","CRCF","0","1","1","6","86","41","60","0","26","30","20.5"
"6.4.2","Reversal_Task","1","2021-09-27","19:49:17","fixation","Experiment_block_start","+","100","115","36","21","7","3","Acquisiton","21","7","2","right","36","33","0.6999999999999999556","0.2999999999999999889","CRCF","0","1","1","6","86","42","61","1","26","30.5","21"
"6.4.2","Reversal_Task","1","2021-09-27","19:49:17","choice","Experiment_block_start","telescope.bmp","100","65","33","21","7","3","Acquisiton","21","7","1","left","33","36","0.6999999999999999556","0.2999999999999999889","CRIF","0","1","-1","7","87","42","61","1","26","30.5","21"
"6.4.2","Reversal_Task","1","2021-09-27","19:49:17","fixation","Experiment_block_start","+","100","65","33","21","7","3","Acquisiton","21","7","1","left","33","36","0.6999999999999999556","0.2999999999999999889","CRIF","0","1","-1","7","87","42","62","2","26","31","21"
"6.4.2","Reversal_Task","1","2021-09-27","19:49:17","choice","Experiment_block_start","telescope.bmp","100","84","36","21","7","3","Acquisiton","21","7","1","left","33","36","0.6999999999999999556","0.2999999999999999889","IRIF","0","-1","1","8","88","42","62","2","26","31","21"
"6.4.2","Reversal_Task","1","2021-09-27","19:49:17","fixation","Experiment_block_start","+","100","84","36","21","7","3","Acquisiton","21","7","1","left","33","36","0.6999999999999999556","0.2999999999999999889","IRIF","0","-1","1","8","88","42","62","0","26","31","21"
"6.4.2","Reversal_Task","1","2021-09-27","19:49:17","choice","Experiment_block_start","telescope.bmp","100","151","33","21","7","3","Acquisiton","21","7","2","right","36","33","0.6999999999999999556","0.2999999999999999889","IRIF","0","-1","1","9","89","42","62","0","26","31","21"
"6.4.2","Reversal_Task","1","2021-09-27","19:49:17","fixation","Experiment_block_start","+","100","151","33","21","7","3","Acquisiton","21","7","2","right","36","33","0.6999999999999999556","0.2999999999999999889","IRIF","0","-1","1","9","89","42","62","0","26","31","21"
"6.4.2","Reversal_Task","1","2021-09-27","19:49:17","choice","Experiment_block_start","telescope.bmp","100","40","36","21","7","3","Acquisiton","21","7","1","left","33","36","0.6999999999999999556","0.2999999999999999889","IRIF","0","-1","1","10","90","42","62","0","26","31","21"
"6.4.2","Reversal_Task","1","2021-09-27","19:49:17","fixation","Experiment_block_start","+","100","40","36","21","7","3","Acquisiton","21","7","1","left","33","36","0.6999999999999999556","0.2999999999999999889","IRIF","0","-1","1","10","90","42","62","0","26","31","21"
"6.4.2","Reversal_Task","1","2021-09-27","19:49:17","choice","Experiment_block_start","telescope.bmp","100","103","33","21","7","3","Acquisiton","21","7","1","left","33","36","0.6999999999999999556","0.2999999999999999889","CRCF","0","1","1","11","91","42","62","0","26","31","21"
"6.4.2","Reversal_Task","1","2021-09-27","19:49:17","fixation","Experiment_block_start","+","100","103","33","21","7","3","Acquisiton","21","7","1","left","33","36","0.6999999999999999556","0.2999999999999999889","CRCF","0","1","1","11","91","43","63","1","26","31.5","21.5"
"6.4.2","Reversal_Task","1","2021-09-27","19:49:17","choice","Experiment_block_start","telescope.bmp","100","381","36","21","7","3","Acquisiton","21","7","2","right","36","33","0.6999999999999999556","0.2999999999999999889","CRIF","0","1","-1","12","92","43","63","1","26","31.5","21.5"
"6.4.2","Reversal_Task","1","2021-09-27","19:49:17","fixation","Experiment_block_start","+","100","381","36","21","7","3","Acquisiton","21","7","2","right","36","33","0.6999999999999999556","0.2999999999999999889","CRIF","0","1","-1","12","92","43","64","2","26","32","21.5"
"6.4.2","Reversal_Task","1","2021-09-27","19:49:17","choice","Experiment_block_start","telescope.bmp","100","279","36","21","7","3","Acquisiton","21","7","2","right","36","33","0.6999999999999999556","0.2999999999999999889","CRIF","0","1","-1","13","93","43","64","2","26","32","21.5"
"6.4.2","Reversal_Task","1","2021-09-27","19:49:17","fixation","Experiment_block_start","+","100","279","36","21","7","3","Acquisiton","21","7","2","right","36","33","0.6999999999999999556","0.2999999999999999889","CRIF","0","1","-1","13","93","43","65","3","26","32.5","21.5"
"6.4.2","Reversal_Task","1","2021-09-27","19:49:17","choice","Experiment_block_start","telescope.bmp","100","196","33","21","7","3","Acquisiton","21","7","1","left","33","36","0.6999999999999999556","0.2999999999999999889","CRCF","0","1","1","14","94","43","65","3","26","32.5","21.5"
"6.4.2","Reversal_Task","1","2021-09-27","19:49:17","fixation","Experiment_block_start","+","100","196","33","21","7","3","Acquisiton","21","7","1","left","33","36","0.6999999999999999556","0.2999999999999999889","CRCF","0","1","1","14","94","44","66","4","26","33","22"
"6.4.2","Reversal_Task","1","2021-09-27","19:49:17","choice","Experiment_block_start","telescope.bmp","100","190","36","21","7","3","Acquisiton","21","7","1","left","33","36","0.6999999999999999556","0.2999999999999999889","IRIF","0","-1","1","15","95","44","66","4","26","33","22"
"6.4.2","Reversal_Task","1","2021-09-27","19:49:17","fixation","Experiment_block_start","+","100","190","36","21","7","3","Acquisiton","21","7","1","left","33","36","0.6999999999999999556","0.2999999999999999889","IRIF","0","-1","1","15","95","44","66","0","26","33","22"
"6.4.2","Reversal_Task","1","2021-09-27","19:49:17","choice","Experiment_block_start","telescope.bmp","100","82","33","21","7","3","Acquisiton","21","7","2","right","36","33","0.6999999999999999556","0.2999999999999999889","IRIF","0","-1","1","16","96","44","66","0","26","33","22"
"6.4.2","Reversal_Task","1","2021-09-27","19:49:17","fixation","Experiment_block_start","+","100","82","33","21","7","3","Acquisiton","21","7","2","right","36","33","0.6999999999999999556","0.2999999999999999889","IRIF","0","-1","1","16","96","44","66","0","26","33","22"
"6.4.2","Reversal_Task","1","2021-09-27","19:49:17","choice","Experiment_block_start","telescope.bmp","100","371","36","21","7","3","Acquisiton","21","7","2","right","36","33","0.6999999999999999556","0.2999999999999999889","CRCF","0","1","1","17","97","44","66","0","26","33","22"
"6.4.2","Reversal_Task","1","2021-09-27","19:49:17","fixation","Experiment_block_start","+","100","371","36","21","7","3","Acquisiton","21","7","2","right","36","33","0.6999999999999999556","0.2999999999999999889","CRCF","0","1","1","17","97","45","67","1","26","33.5","22.5"
"6.4.2","Reversal_Task","1","2021-09-27","19:49:17","choice","Experiment_block_start","telescope.bmp","100","335","36","21","7","3","Acquisiton","21","7","2","right","36","33","0.6999999999999999556","0.2999999999999999889","CRIF","0","1","-1","18","98","45","67","1","26","33.5","22.5"
"6.4.2","Reversal_Task","1","2021-09-27","19:49:17","fixation","Experiment_block_start","+","100","335","36","21","7","3","Acquisiton","21","7","2","right","36","33","0.6999999999999999556","0.2999999999999999889","CRIF","0","1","-1","18","98","45","68","2","26","34","22.5"
"6.4.2","Reversal_Task","1","2021-09-27","19:49:17","choice","Experiment_block_start","telescope.bmp","100","156","33","21","7","3","Acquisiton","21","7","1","left","33","36","0.6999999999999999556","0.2999999999999999889","CRCF","0","1","1","19","99","45","68","2","26","34","22.5"
"6.4.2","Reversal_Task","1","2021-09-27","19:49:17","fixation","Experiment_block_start","+","100","156","33","21","7","3","Acquisiton","21","7","1","left","33","36","0.6999999999999999556","0.2999999999999999889","CRCF","0","1","1","19","99","46","69","3","26","34.5","23"
"6.4.2","Reversal_Task","1","2021-09-27","19:49:17","choice","Experiment_block_start","telescope.bmp","100","188","36","21","7","3","Acquisiton","21","7","1","left","33","36","0.6999999999999999556","0.2999999999999999889","IRIF","0","-1","1","20","100","46","69","3","26","34.5","23"
"6.4.2","Reversal_Task","1","2021-09-27","19:49:17","fixation","Experiment_block_start","+","100","188","36","21","7","3","Acquisiton","21","7","1","left","33","36","0.6999999999999999556","0.2999999999999999889","IRIF","0","-1","1","20","100","46","69","0","26","34.5","23"
"6.4.2","Reversal_Task","1","2021-09-27","19:49:17","choice","Experiment_block_start","telescope.bmp","100","363","33","21","7","3","Acquisiton","21","7","1","left","33","36","0.6999999999999999556","0.2999999999999999889","CRIF","0","1","-1","21","101","46","69","0","26","34.5","23"
"6.4.2","Reversal_Task","1","2021-09-27","19:49:17","fixation","Experiment_block_start","+","100","363","33","21","7","3","Acquisiton","21","7","1","left","33","36","0.6999999999999999556","0.2999999999999999889","CRIF","0","1","-1","21","101","46","70","1","26","35","23"
"6.4.2","Reversal_Task","1","2021-09-27","19:49:17","choice","Experiment_block_start","telescope.bmp","100","189","36","21","7","3","Acquisiton","21","7","2","right","36","33","0.6999999999999999556","0.2999999999999999889","CRIF","0","1","-1","22","102","46","70","1","26","35","23"
"6.4.2","Reversal_Task","1","2021-09-27","19:49:17","fixation","Experiment_block_start","+","100","189","36","21","7","3","Acquisiton","21","7","2","right","36","33","0.6999999999999999556","0.2999999999999999889","CRIF","0","1","-1","22","102","46","71","2","26","35.5","23"
"6.4.2","Reversal_Task","1","2021-09-27","19:49:17","choice","Experiment_block_start","telescope.bmp","100","253","36","21","7","3","Acquisiton","21","7","1","left","33","36","0.6999999999999999556","0.2999999999999999889","IRCF","0","-1","-1","23","103","46","71","2","26","35.5","23"
"6.4.2","Reversal_Task","1","2021-09-27","19:49:17","fixation","Experiment_block_start","+","100","253","36","21","7","3","Acquisiton","21","7","1","left","33","36","0.6999999999999999556","0.2999999999999999889","IRCF","0","-1","-1","23","103","47","71","0","26","35.5","23.5"
"6.4.2","Reversal_Task","1","2021-09-27","19:49:17","choice","Experiment_block_start","telescope.bmp","100","313","33","21","7","3","Acquisiton","21","7","2","right","36","33","0.6999999999999999556","0.2999999999999999889","IRIF","0","-1","1","24","104","47","71","0","26","35.5","23.5"
"6.4.2","Reversal_Task","1","2021-09-27","19:49:17","fixation","Experiment_block_start","+","100","313","33","21","7","3","Acquisiton","21","7","2","right","36","33","0.6999999999999999556","0.2999999999999999889","IRIF","0","-1","1","24","104","47","71","0","26","35.5","23.5"
"6.4.2","Reversal_Task","1","2021-09-27","19:49:17","choice","Experiment_block_start","telescope.bmp","100","138","33","21","7","3","Acquisiton","21","7","1","left","33","36","0.6999999999999999556","0.2999999999999999889","CRCF","0","1","1","25","105","47","71","0","26","35.5","23.5"
"6.4.2","Reversal_Task","1","2021-09-27","19:49:17","fixation","Experiment_block_start","+","100","138","33","21","7","3","Acquisiton","21","7","1","left","33","36","0.6999999999999999556","0.2999999999999999889","CRCF","0","1","1","25","105","48","72","1","26","36","24"
"6.4.2","Reversal_Task","1","2021-09-27","19:49:17","choice","Experiment_block_start","telescope.bmp","100","129","33","21","7","3","Acquisiton","21","7","1","left","33","36","0.6999999999999999556","0.2999999999999999889","CRCF","0","1","1","26","106","48","72","1","26","36","24"
"6.4.2","Reversal_Task","1","2021-09-27","19:49:17","fixation","Experiment_block_start","+","100","129","33","21","7","3","Acquisiton","21","7","1","left","33","36","0.6999999999999999556","0.2999999999999999889","CRCF","0","1","1","26","106","49","73","2","26","36.5","24.5"
"6.4.2","Reversal_Task","1","2021-09-27","19:49:17","choice","Experiment_block_start","watermelon.bmp","100","302","36","7","21","3","Reversal","7","21","1","left","33","36","0.6999999999999999556","0.2999999999999999889","IRIF","0","-1","1","27","107","49","73","2","26","36.5","24.5"
"6.4.2","Reversal_Task","1","2021-09-27","19:49:17","fixation","Experiment_block_start","+","100","302","36","7","21","3","Reversal","7","21","1","left","33","36","0.6999999999999999556","0.2999999999999999889","IRIF","0","-1","1","27","107","49","73","0","26","36.5","24.5"
"6.4.2","Reversal_Task","1","2021-09-27","19:49:17","choice","Experiment_block_start","watermelon.bmp","100","330","33","7","21","3","Reversal","7","21","1","left","33","36","0.6999999999999999556","0.2999999999999999889","CRCF","0","1","1","28","108","49","73","0","26","36.5","24.5"
"6.4.2","Reversal_Task","1","2021-09-27","19:49:17","fixation","Experiment_block_start","+","100","330","33","7","21","3","Reversal","7","21","1","left","33","36","0.6999999999999999556","0.2999999999999999889","CRCF","0","1","1","28","108","50","74","1","26","37","25"
"6.4.2","Reversal_Task","1","2021-09-27","19:49:17","choice","Experiment_block_start","watermelon.bmp","100","343","33","7","21","3","Reversal","7","21","1","left","33","36","0.6999999999999999556","0.2999999999999999889","CRCF","0","1","1","29","109","50","74","1","26","37","25"
"6.4.2","Reversal_Task","1","2021-09-27","19:49:17","fixation","Experiment_block_start","+","100","343","33","7","21","3","Reversal","7","21","1","left","33","36","0.6999999999999999556","0.2999999999999999889","CRCF","0","1","1","29","109","51","75","2","26","37.5","25.5"
"6.4.2","Reversal_Task","1","2021-09-27","19:49:17","choice","Experiment_block_start","watermelon.bmp","100","340","33","7","21","3","Reversal","7","21","2","right","36","33","0.6999999999999999556","0.2999999999999999889","IRCF","0","-1","-1","30","110","51","75","2","26","37.5","25.5"
"6.4.2","Reversal_Task","1","2021-09-27","19:49:17","fixation","Experiment_block_start","+","100","340","33","7","21","3","Reversal","7","21","2","right","36","33","0.6999999999999999556","0.2999999999999999889","IRCF","0","-1","-1","30","110","52","75","0","26","37.5","26"
"6.4.2","Reversal_Task","1","2021-09-27","19:49:17","choice","Experiment_block_start","watermelon.bmp","100","372","33","7","21","3","Reversal","7","21","1","left","33","36","0.6999999999999999556","0.2999999999999999889","CRCF","0","1","1","31","111","52","75","0","26","37.5","26"
"6.4.2","Reversal_Task","1","2021-09-27","19:49:17","fixation","Experiment_block_start","+","100","372","33","7","21","3","Reversal","7","21","1","left","33","36","0.6999999999999999556","0.2999999999999999889","CRCF","0","1","1","31","111","53","76","1","26","38","26.5"
"6.4.2","Reversal_Task","1","2021-09-27","19:49:17","choice","Experiment_block_start","watermelon.bmp","100","231","36","7","21","3","Reversal","7","21","2","right","36","33","0.6999999999999999556","0.2999999999999999889","CRCF","0","1","1","32","112","53","76","1","26","38","26.5"
"6.4.2","Reversal_Task","1","2021-09-27","19:49:17","fixation","Experiment_block_start","+","100","231","36","7","21","3","Reversal","7","21","2","right","36","33","0.6999999999999999556","0.2999999999999999889","CRCF","0","1","1","32","112","54","77","2","26","38.5","27"
"6.4.2","Reversal_Task","1","2021-09-27","19:49:17","choice","Experiment_block_start","watermelon.bmp","100","250","33","7","21","3","Reversal","7","21","2","right","36","33","0.6999999999999999556","0.2999999999999999889","IRIF","0","-1","1","33","113","54","77","2","26","38.5","27"
"6.4.2","Reversal_Task","1","2021-09-27","19:49:17","fixation","Experiment_block_start","+","100","250","33","7","21","3","Reversal","7","21","2","right","36","33","0.6999999999999999556","0.2999999999999999889","IRIF","0","-1","1","33","113","54","77","0","26","38.5","27"
"6.4.2","Reversal_Task","1","2021-09-27","19:49:17","choice","Experiment_block_start","watermelon.bmp","100","357","36","7","21","3","Reversal","7","21","2","right","36","33","0.6999999999999999556","0.2999999999999999889","CRCF","0","1","1","34","114","54","77","0","26","38.5","27"
"6.4.2","Reversal_Task","1","2021-09-27","19:49:17","fixation","Experiment_block_start","+","100","357","36","7","21","3","Reversal","7","21","2","right","36","33","0.6999999999999999556","0.2999999999999999889","CRCF","0","1","1","34","114","55","78","1","26","39","27.5"
"6.4.2","Reversal_Task","1","2021-09-27","19:49:17","choice","Experiment_block_start","watermelon.bmp","100","710","36","7","21","3","Reversal","7","21","2","right","36","33","0.6999999999999999556","0.2999999999999999889","CRCF","0","1","1","35","115","55","78","1","26","39","27.5"
"6.4.2","Reversal_Task","1","2021-09-27","19:49:17","fixation","Experiment_block_start","+","100","710","36","7","21","3","Reversal","7","21","2","right","36","33","0.6999999999999999556","0.2999999999999999889","CRCF","0","1","1","35","115","56","79","2","26","39.5","28"
"6.4.2","Reversal_Task","1","2021-09-27","19:49:17","choice","Experiment_block_start","watermelon.bmp","100","428","33","7","21","3","Reversal","7","21","1","left","33","36","0.6999999999999999556","0.2999999999999999889","CRIF","0","1","-1","36","116","56","79","2","26","39.5","28"
"6.4.2","Reversal_Task","1","2021-09-27","19:49:17","fixation","Experiment_block_start","+","100","428","33","7","21","3","Reversal","7","21","1","left","33","36","0.6999999999999999556","0.2999999999999999889","CRIF","0","1","-1","36","116","56","80","3","26","40","28"
"6.4.2","Reversal_Task","1","2021-09-27","19:49:17","choice","Experiment_block_start","watermelon.bmp","100","125","36","7","21","3","Reversal","7","21","2","right","36","33","0.6999999999999999556","0.2999999999999999889","CRCF","0","1","1","37","117","56","80","3","26","40","28"
"6.4.2","Reversal_Task","1","2021-09-27","19:49:17","fixation","Experiment_block_start","+","100","125","36","7","21","3","Reversal","7","21","2","right","36","33","0.6999999999999999556","0.2999999999999999889","CRCF","0","1","1","37","117","57","81","4","26","40.5","28.5"
"6.4.2","Reversal_Task","1","2021-09-27","19:49:17","choice","Experiment_block_start","watermelon.bmp","100","1439","33","7","21","3","Reversal","7","21","2","right","36","33","0.6999999999999999556","0.2999999999999999889","IRCF","0","-1","-1","38","118","57","81","4","26","40.5","28.5"
"6.4.2","Reversal_Task","1","2021-09-27","19:49:17","fixation","Experiment_block_start","+","100","1439","33","7","21","3","Reversal","7","21","2","right","36","33","0.6999999999999999556","0.2999999999999999889","IRCF","0","-1","-1","38","118","58","81","0","26","40.5","29"
"6.4.2","Reversal_Task","1","2021-09-27","19:49:17","choice","Experiment_block_start","watermelon.bmp","100","744","33","7","21","3","Reversal","7","21","1","left","33","36","0.6999999999999999556","0.2999999999999999889","CRIF","0","1","-1","39","119","58","81","0","26","40.5","29"
"6.4.2","Reversal_Task","1","2021-09-27","19:49:17","fixation","Experiment_block_start","+","100","744","33","7","21","3","Reversal","7","21","1","left","33","36","0.6999999999999999556","0.2999999999999999889","CRIF","0","1","-1","39","119","58","82","1","26","41","29"
"6.4.2","Reversal_Task","1","2021-09-27","19:49:17","choice","Experiment_block_start","watermelon.bmp","100","383","36","7","21","3","Reversal","7","21","1","left","33","36","0.6999999999999999556","0.2999999999999999889","IRIF","0","-1","1","40","120","58","82","1","26","41","29"
"6.4.2","Reversal_Task","1","2021-09-27","19:49:17","fixation","Experiment_block_start","+","100","383","36","7","21","3","Reversal","7","21","1","left","33","36","0.6999999999999999556","0.2999999999999999889","IRIF","0","-1","1","40","120","58","82","0","26","41","29"
"6.4.2","Reversal_Task","1","2021-09-27","19:49:17","reset_trial","Experiment_block_start","Press SPACE to continue","100","383","36","7","21","4","Reversal","7","21","1","left","33","36","0.6999999999999999556","0.2999999999999999889","IRIF","0","-1","1","0","120","58","82","0","22","41","29"
"6.4.2","Reversal_Task","1","2021-09-27","19:49:17","choice","Experiment_block_start","orange.bmp","100","235","33","15","32","4","Acquisiton","15","32","2","right","36","33","0.6999999999999999556","0.2999999999999999889","IRCF","0","-1","-1","1","121","58","82","0","22","41","29"
"6.4.2","Reversal_Task","1","2021-09-27","19:49:17","fixation","Experiment_block_start","+","100","235","33","15","32","4","Acquisiton","15","32","2","right","36","33","0.6999999999999999556","0.2999999999999999889","IRCF","0","-1","-1","1","121","59","82","0","22","41","29.5"
"6.4.2","Reversal_Task","1","2021-09-27","19:49:17","choice","Experiment_block_start","orange.bmp","100","135","36","15","32","4","Acquisiton","15","32","1","left","33","36","0.6999999999999999556","0.2999999999999999889","IRCF","0","-1","-1","2","122","59","82","0","22","41","29.5"
"6.4.2","Reversal_Task","1","2021-09-27","19:49:17","fixation","Experiment_block_start","+","100","135","36","15","32","4","Acquisiton","15","32","1","left","33","36","0.6999999999999999556","0.2999999999999999889","IRCF","0","-1","-1","2","122","60","82","0","22","41","30"
"6.4.2","Reversal_Task","1","2021-09-27","19:49:17","choice","Experiment_block_start","orange.bmp","100","69","33","15","32","4","Acquisiton","15","32","1","left","33","36","0.6999999999999999556","0.2999999999999999889","CRIF","0","1","-1","3","123","60","82","0","22","41","30"
"6.4.2","Reversal_Task","1","2021-09-27","19:49:17","fixation","Experiment_block_start","+","100","69","33","15","32","4","Acquisiton","15","32","1","left","33","36","0.6999999999999999556","0.2999999999999999889","CRIF","0","1","-1","3","123","60","83","1","22","41.5","30"
"6.4.2","Reversal_Task","1","2021-09-27","19:49:17","choice","Experiment_block_start","orange.bmp","100","109","36","15","32","4","Acquisiton","15","32","1","left","33","36","0.6999999999999999556","0.2999999999999999889","IRIF","0","-1","1","4","124","60","83","1","22","41.5","30"
"6.4.2","Reversal_Task","1","2021-09-27","19:49:17","fixation","Experiment_block_start","+","100","109","36","15","32","4","Acquisiton","15","32","1","left","33","36","0.6999999999999999556","0.2999999999999999889","IRIF","0","-1","1","4","124","60","83","0","22","41.5","30"
"6.4.2","Reversal_Task","1","2021-09-27","19:49:17","choice","Experiment_block_start","orange.bmp","100","356","33","15","32","4","Acquisiton","15","32","2","right","36","33","0.6999999999999999556","0.2999999999999999889","IRIF","0","-1","1","5","125","60","83","0","22","41.5","30"
"6.4.2","Reversal_Task","1","2021-09-27","19:49:17","fixation","Experiment_block_start","+","100","356","33","15","32","4","Acquisiton","15","32","2","right","36","33","0.6999999999999999556","0.2999999999999999889","IRIF","0","-1","1","5","125","60","83","0","22","41.5","30"
"6.4.2","Reversal_Task","1","2021-09-27","19:49:17","choice","Experiment_block_start","orange.bmp","100","378","36","15","32","4","Acquisiton","15","32","2","right","36","33","0.6999999999999999556","0.2999999999999999889","CRCF","0","1","1","6","126","60","83","0","22","41.5","30"
"6.4.2","Reversal_Task","1","2021-09-27","19:49:17","fixation","Experiment_block_start","+","100","378","36","15","32","4","Acquisiton","15","32","2","right","36","33","0.6999999999999999556","0.2999999999999999889","CRCF","0","1","1","6","126","61","84","1","22","42","30.5"
"6.4.2","Reversal_Task","1","2021-09-27","19:49:17","choice","Experiment_block_start","orange.bmp","100","346","36","15","32","4","Acquisiton","15","32","2","right","36","33","0.6999999999999999556","0.2999999999999999889","CRIF","0","1","-1","7","127","61","84","1","22","42","30.5"
"6.4.2","Reversal_Task","1","2021-09-27","19:49:17","fixation","Experiment_block_start","+","100","346","36","15","32","4","Acquisiton","15","32","2","right","36","33","0.6999999999999999556","0.2999999999999999889","CRIF","0","1","-1","7","127","61","85","2","22","42.5","30.5"
"6.4.2","Reversal_Task","1","2021-09-27","19:49:17","choice","Experiment_block_start","orange.bmp","100","497","33","15","32","4","Acquisiton","15","32","1","left","33","36","0.6999999999999999556","0.2999999999999999889","CRCF","0","1","1","8","128","61","85","2","22","42.5","30.5"
"6.4.2","Reversal_Task","1","2021-09-27","19:49:17","fixation","Experiment_block_start","+","100","497","33","15","32","4","Acquisiton","15","32","1","left","33","36","0.6999999999999999556","0.2999999999999999889","CRCF","0","1","1","8","128","62","86","3","22","43","31"
"6.4.2","Reversal_Task","1","2021-09-27","19:49:17","choice","Experiment_block_start","orange.bmp","100","508","33","15","32","4","Acquisiton","15","32","1","left","33","36","0.6999999999999999556","0.2999999999999999889","CRCF","0","1","1","9","129","62","86","3","22","43","31"
"6.4.2","Reversal_Task","1","2021-09-27","19:49:17","fixation","Experiment_block_start","+","100","508","33","15","32","4","Acquisiton","15","32","1","left","33","36","0.6999999999999999556","0.2999999999999999889","CRCF","0","1","1","9","129","63","87","4","22","43.5","31.5"
"6.4.2","Reversal_Task","1","2021-09-27","19:49:17","choice","Experiment_block_start","orange.bmp","100","328","33","15","32","4","Acquisiton","15","32","1","left","33","36","0.6999999999999999556","0.2999999999999999889","CRIF","0","1","-1","10","130","63","87","4","22","43.5","31.5"
"6.4.2","Reversal_Task","1","2021-09-27","19:49:17","fixation","Experiment_block_start","+","100","328","33","15","32","4","Acquisiton","15","32","1","left","33","36","0.6999999999999999556","0.2999999999999999889","CRIF","0","1","-1","10","130","63","88","5","22","44","31.5"
"6.4.2","Reversal_Task","1","2021-09-27","19:49:17","choice","Experiment_block_start","orange.bmp","100","311","33","15","32","4","Acquisiton","15","32","1","left","33","36","0.6999999999999999556","0.2999999999999999889","CRIF","0","1","-1","11","131","63","88","5","22","44","31.5"
"6.4.2","Reversal_Task","1","2021-09-27","19:49:17","fixation","Experiment_block_start","+","100","311","33","15","32","4","Acquisiton","15","32","1","left","33","36","0.6999999999999999556","0.2999999999999999889","CRIF","0","1","-1","11","131","63","89","6","22","44.5","31.5"
"6.4.2","Reversal_Task","1","2021-09-27","19:49:17","choice","Experiment_block_start","orange.bmp","100","408","33","15","32","4","Acquisiton","15","32","2","right","36","33","0.6999999999999999556","0.2999999999999999889","IRIF","0","-1","1","12","132","63","89","6","22","44.5","31.5"
"6.4.2","Reversal_Task","1","2021-09-27","19:49:17","fixation","Experiment_block_start","+","100","408","33","15","32","4","Acquisiton","15","32","2","right","36","33","0.6999999999999999556","0.2999999999999999889","IRIF","0","-1","1","12","132","63","89","0","22","44.5","31.5"
"6.4.2","Reversal_Task","1","2021-09-27","19:49:17","choice","Experiment_block_start","orange.bmp","100","389","36","15","32","4","Acquisiton","15","32","1","left","33","36","0.6999999999999999556","0.2999999999999999889","IRCF","0","-1","-1","13","133","63","89","0","22","44.5","31.5"
"6.4.2","Reversal_Task","1","2021-09-27","19:49:17","fixation","Experiment_block_start","+","100","389","36","15","32","4","Acquisiton","15","32","1","left","33","36","0.6999999999999999556","0.2999999999999999889","IRCF","0","-1","-1","13","133","64","89","0","22","44.5","32"
"6.4.2","Reversal_Task","1","2021-09-27","19:49:17","choice","Experiment_block_start","orange.bmp","100","423","36","15","32","4","Acquisiton","15","32","1","left","33","36","0.6999999999999999556","0.2999999999999999889","IRIF","0","-1","1","14","134","64","89","0","22","44.5","32"
"6.4.2","Reversal_Task","1","2021-09-27","19:49:17","fixation","Experiment_block_start","+","100","423","36","15","32","4","Acquisiton","15","32","1","left","33","36","0.6999999999999999556","0.2999999999999999889","IRIF","0","-1","1","14","134","64","89","0","22","44.5","32"
"6.4.2","Reversal_Task","1","2021-09-27","19:49:17","choice","Experiment_block_start","orange.bmp","100","329","36","15","32","4","Acquisiton","15","32","1","left","33","36","0.6999999999999999556","0.2999999999999999889","IRCF","0","-1","-1","15","135","64","89","0","22","44.5","32"
"6.4.2","Reversal_Task","1","2021-09-27","19:49:17","fixation","Experiment_block_start","+","100","329","36","15","32","4","Acquisiton","15","32","1","left","33","36","0.6999999999999999556","0.2999999999999999889","IRCF","0","-1","-1","15","135","65","89","0","22","44.5","32.5"
"6.4.2","Reversal_Task","1","2021-09-27","19:49:17","choice","Experiment_block_start","orange.bmp","100","292","36","15","32","4","Acquisiton","15","32","1","left","33","36","0.6999999999999999556","0.2999999999999999889","IRIF","0","-1","1","16","136","65","89","0","22","44.5","32.5"
"6.4.2","Reversal_Task","1","2021-09-27","19:49:17","fixation","Experiment_block_start","+","100","292","36","15","32","4","Acquisiton","15","32","1","left","33","36","0.6999999999999999556","0.2999999999999999889","IRIF","0","-1","1","16","136","65","89","0","22","44.5","32.5"
"6.4.2","Reversal_Task","1","2021-09-27","19:49:17","choice","Experiment_block_start","orange.bmp","100","187","36","15","32","4","Acquisiton","15","32","1","left","33","36","0.6999999999999999556","0.2999999999999999889","IRIF","0","-1","1","17","137","65","89","0","22","44.5","32.5"
"6.4.2","Reversal_Task","1","2021-09-27","19:49:17","fixation","Experiment_block_start","+","100","187","36","15","32","4","Acquisiton","15","32","1","left","33","36","0.6999999999999999556","0.2999999999999999889","IRIF","0","-1","1","17","137","65","89","0","22","44.5","32.5"
"6.4.2","Reversal_Task","1","2021-09-27","19:49:17","choice","Experiment_block_start","orange.bmp","100","131","36","15","32","4","Acquisiton","15","32","2","right","36","33","0.6999999999999999556","0.2999999999999999889","CRCF","0","1","1","18","138","65","89","0","22","44.5","32.5"
"6.4.2","Reversal_Task","1","2021-09-27","19:49:17","fixation","Experiment_block_start","+","100","131","36","15","32","4","Acquisiton","15","32","2","right","36","33","0.6999999999999999556","0.2999999999999999889","CRCF","0","1","1","18","138","66","90","1","22","45","33"
"6.4.2","Reversal_Task","1","2021-09-27","19:49:17","choice","Experiment_block_start","orange.bmp","100","249","33","15","32","4","Acquisiton","15","32","1","left","33","36","0.6999999999999999556","0.2999999999999999889","CRCF","0","1","1","19","139","66","90","1","22","45","33"
"6.4.2","Reversal_Task","1","2021-09-27","19:49:17","fixation","Experiment_block_start","+","100","249","33","15","32","4","Acquisiton","15","32","1","left","33","36","0.6999999999999999556","0.2999999999999999889","CRCF","0","1","1","19","139","67","91","2","22","45.5","33.5"
"6.4.2","Reversal_Task","1","2021-09-27","19:49:17","choice","Experiment_block_start","orange.bmp","100","247","36","15","32","4","Acquisiton","15","32","2","right","36","33","0.6999999999999999556","0.2999999999999999889","CRCF","0","1","1","20","140","67","91","2","22","45.5","33.5"
"6.4.2","Reversal_Task","1","2021-09-27","19:49:17","fixation","Experiment_block_start","+","100","247","36","15","32","4","Acquisiton","15","32","2","right","36","33","0.6999999999999999556","0.2999999999999999889","CRCF","0","1","1","20","140","68","92","3","22","46","34"
"6.4.2","Reversal_Task","1","2021-09-27","19:49:17","choice","Experiment_block_start","orange.bmp","100","282","33","15","32","4","Acquisiton","15","32","1","left","33","36","0.6999999999999999556","0.2999999999999999889","CRCF","0","1","1","21","141","68","92","3","22","46","34"
"6.4.2","Reversal_Task","1","2021-09-27","19:49:17","fixation","Experiment_block_start","+","100","282","33","15","32","4","Acquisiton","15","32","1","left","33","36","0.6999999999999999556","0.2999999999999999889","CRCF","0","1","1","21","141","69","93","4","22","46.5","34.5"
"6.4.2","Reversal_Task","1","2021-09-27","19:49:17","choice","Experiment_block_start","orange.bmp","100","172","36","15","32","4","Acquisiton","15","32","1","left","33","36","0.6999999999999999556","0.2999999999999999889","IRIF","0","-1","1","22","142","69","93","4","22","46.5","34.5"
"6.4.2","Reversal_Task","1","2021-09-27","19:49:17","fixation","Experiment_block_start","+","100","172","36","15","32","4","Acquisiton","15","32","1","left","33","36","0.6999999999999999556","0.2999999999999999889","IRIF","0","-1","1","22","142","69","93","0","22","46.5","34.5"
"6.4.2","Reversal_Task","1","2021-09-27","19:49:17","choice","Experiment_block_start","dinosaur.bmp","100","277","33","32","15","4","Reversal","32","15","2","right","36","33","0.6999999999999999556","0.2999999999999999889","IRIF","0","-1","1","23","143","69","93","0","22","46.5","34.5"
"6.4.2","Reversal_Task","1","2021-09-27","19:49:17","fixation","Experiment_block_start","+","100","277","33","32","15","4","Reversal","32","15","2","right","36","33","0.6999999999999999556","0.2999999999999999889","IRIF","0","-1","1","23","143","69","93","0","22","46.5","34.5"
"6.4.2","Reversal_Task","1","2021-09-27","19:49:17","choice","Experiment_block_start","dinosaur.bmp","100","280","33","32","15","4","Reversal","32","15","1","left","33","36","0.6999999999999999556","0.2999999999999999889","CRCF","0","1","1","24","144","69","93","0","22","46.5","34.5"
"6.4.2","Reversal_Task","1","2021-09-27","19:49:17","fixation","Experiment_block_start","+","100","280","33","32","15","4","Reversal","32","15","1","left","33","36","0.6999999999999999556","0.2999999999999999889","CRCF","0","1","1","24","144","70","94","1","22","47","35"
"6.4.2","Reversal_Task","1","2021-09-27","19:49:17","choice","Experiment_block_start","dinosaur.bmp","100","0","36","32","15","4","Reversal","32","15","2","right","36","33","0.6999999999999999556","0.2999999999999999889","CRCF","0","1","1","25","145","70","94","1","22","47","35"
"6.4.2","Reversal_Task","1","2021-09-27","19:49:17","fixation","Experiment_block_start","+","100","0","36","32","15","4","Reversal","32","15","2","right","36","33","0.6999999999999999556","0.2999999999999999889","CRCF","0","1","1","25","145","71","95","2","22","47.5","35.5"
"6.4.2","Reversal_Task","1","2021-09-27","19:49:17","choice","Experiment_block_start","dinosaur.bmp","100","152","33","32","15","4","Reversal","32","15","1","left","33","36","0.6999999999999999556","0.2999999999999999889","CRCF","0","1","1","26","146","71","95","2","22","47.5","35.5"
"6.4.2","Reversal_Task","1","2021-09-27","19:49:17","fixation","Experiment_block_start","+","100","152","33","32","15","4","Reversal","32","15","1","left","33","36","0.6999999999999999556","0.2999999999999999889","CRCF","0","1","1","26","146","72","96","3","22","48","36"
"6.4.2","Reversal_Task","1","2021-09-27","19:49:17","choice","Experiment_block_start","dinosaur.bmp","100","68","36","32","15","4","Reversal","32","15","1","left","33","36","0.6999999999999999556","0.2999999999999999889","IRCF","0","-1","-1","27","147","72","96","3","22","48","36"
"6.4.2","Reversal_Task","1","2021-09-27","19:49:17","fixation","Experiment_block_start","+","100","68","36","32","15","4","Reversal","32","15","1","left","33","36","0.6999999999999999556","0.2999999999999999889","IRCF","0","-1","-1","27","147","73","96","0","22","48","36.5"
"6.4.2","Reversal_Task","1","2021-09-27","19:49:17","choice","Experiment_block_start","dinosaur.bmp","100","267","33","32","15","4","Reversal","32","15","1","left","33","36","0.6999999999999999556","0.2999999999999999889","CRCF","0","1","1","28","148","73","96","0","22","48","36.5"
"6.4.2","Reversal_Task","1","2021-09-27","19:49:17","fixation","Experiment_block_start","+","100","267","33","32","15","4","Reversal","32","15","1","left","33","36","0.6999999999999999556","0.2999999999999999889","CRCF","0","1","1","28","148","74","97","1","22","48.5","37"
"6.4.2","Reversal_Task","1","2021-09-27","19:49:17","choice","Experiment_block_start","dinosaur.bmp","100","481","33","32","15","4","Reversal","32","15","2","right","36","33","0.6999999999999999556","0.2999999999999999889","IRIF","0","-1","1","29","149","74","97","1","22","48.5","37"
"6.4.2","Reversal_Task","1","2021-09-27","19:49:17","fixation","Experiment_block_start","+","100","481","33","32","15","4","Reversal","32","15","2","right","36","33","0.6999999999999999556","0.2999999999999999889","IRIF","0","-1","1","29","149","74","97","0","22","48.5","37"
"6.4.2","Reversal_Task","1","2021-09-27","19:49:17","choice","Experiment_block_start","dinosaur.bmp","100","78","33","32","15","4","Reversal","32","15","1","left","33","36","0.6999999999999999556","0.2999999999999999889","CRCF","0","1","1","30","150","74","97","0","22","48.5","37"
"6.4.2","Reversal_Task","1","2021-09-27","19:49:17","fixation","Experiment_block_start","+","100","78","33","32","15","4","Reversal","32","15","1","left","33","36","0.6999999999999999556","0.2999999999999999889","CRCF","0","1","1","30","150","75","98","1","22","49","37.5"
"6.4.2","Reversal_Task","1","2021-09-27","19:49:17","choice","Experiment_block_start","dinosaur.bmp","100","184","33","32","15","4","Reversal","32","15","2","right","36","33","0.6999999999999999556","0.2999999999999999889","IRIF","0","-1","1","31","151","75","98","1","22","49","37.5"
"6.4.2","Reversal_Task","1","2021-09-27","19:49:17","fixation","Experiment_block_start","+","100","184","33","32","15","4","Reversal","32","15","2","right","36","33","0.6999999999999999556","0.2999999999999999889","IRIF","0","-1","1","31","151","75","98","0","22","49","37.5"
"6.4.2","Reversal_Task","1","2021-09-27","19:49:17","choice","Experiment_block_start","dinosaur.bmp","100","479","33","32","15","4","Reversal","32","15","1","left","33","36","0.6999999999999999556","0.2999999999999999889","CRIF","0","1","-1","32","152","75","98","0","22","49","37.5"
"6.4.2","Reversal_Task","1","2021-09-27","19:49:17","fixation","Experiment_block_start","+","100","479","33","32","15","4","Reversal","32","15","1","left","33","36","0.6999999999999999556","0.2999999999999999889","CRIF","0","1","-1","32","152","75","99","1","22","49.5","37.5"
"6.4.2","Reversal_Task","1","2021-09-27","19:49:17","choice","Experiment_block_start","dinosaur.bmp","96","2000","0","32","15","4","Reversal","32","15","2","right","36","33","0.6999999999999999556","0.2999999999999999889","NRNF","0","0","1","33","153","75","99","1","22","49.5","37.5"
"6.4.2","Reversal_Task","1","2021-09-27","19:49:17","fixation","Experiment_block_start","+","96","2000","0","32","15","4","Reversal","32","15","2","right","36","33","0.6999999999999999556","0.2999999999999999889","NRNF","0","0","1","33","153","75","99","0","22","49.5","37.5"
"6.4.2","Reversal_Task","1","2021-09-27","19:49:17","choice","Experiment_block_start","dinosaur.bmp","97","1292","33","32","15","4","Reversal","32","15","2","right","36","33","0.6999999999999999556","0.2999999999999999889","IRIF","0","-1","1","34","154","75","99","0","22","49.5","37.5"
"6.4.2","Reversal_Task","1","2021-09-27","19:49:17","fixation","Experiment_block_start","+","97","1292","33","32","15","4","Reversal","32","15","2","right","36","33","0.6999999999999999556","0.2999999999999999889","IRIF","0","-1","1","34","154","75","99","0","22","49.5","37.5"
"6.4.2","Reversal_Task","1","2021-09-27","19:49:17","choice","Experiment_block_start","dinosaur.bmp","97","118","33","32","15","4","Reversal","32","15","1","left","33","36","0.6999999999999999556","0.2999999999999999889","CRIF","0","1","-1","35","155","75","99","0","22","49.5","37.5"
"6.4.2","Reversal_Task","1","2021-09-27","19:49:17","fixation","Experiment_block_start","+","97","118","33","32","15","4","Reversal","32","15","1","left","33","36","0.6999999999999999556","0.2999999999999999889","CRIF","0","1","-1","35","155","75","100","1","22","50","37.5"
"6.4.2","Reversal_Task","1","2021-09-27","19:49:17","choice","Experiment_block_start","dinosaur.bmp","97","218","33","32","15","4","Reversal","32","15","2","right","36","33","0.6999999999999999556","0.2999999999999999889","IRIF","0","-1","1","36","156","75","100","1","22","50","37.5"
"6.4.2","Reversal_Task","1","2021-09-27","19:49:17","fixation","Experiment_block_start","+","97","218","33","32","15","4","Reversal","32","15","2","right","36","33","0.6999999999999999556","0.2999999999999999889","IRIF","0","-1","1","36","156","75","100","0","22","50","37.5"
"6.4.2","Reversal_Task","1","2021-09-27","19:49:17","choice","Experiment_block_start","dinosaur.bmp","97","332","33","32","15","4","Reversal","32","15","1","left","33","36","0.6999999999999999556","0.2999999999999999889","CRCF","0","1","1","37","157","75","100","0","22","50","37.5"
"6.4.2","Reversal_Task","1","2021-09-27","19:49:17","fixation","Experiment_block_start","+","97","332","33","32","15","4","Reversal","32","15","1","left","33","36","0.6999999999999999556","0.2999999999999999889","CRCF","0","1","1","37","157","76","101","1","22","50.5","38"
"6.4.2","Reversal_Task","1","2021-09-27","19:49:17","choice","Experiment_block_start","dinosaur.bmp","97","263","33","32","15","4","Reversal","32","15","2","right","36","33","0.6999999999999999556","0.2999999999999999889","IRCF","0","-1","-1","38","158","76","101","1","22","50.5","38"
"6.4.2","Reversal_Task","1","2021-09-27","19:49:17","fixation","Experiment_block_start","+","97","263","33","32","15","4","Reversal","32","15","2","right","36","33","0.6999999999999999556","0.2999999999999999889","IRCF","0","-1","-1","38","158","77","101","0","22","50.5","38.5"
"6.4.2","Reversal_Task","1","2021-09-27","19:49:17","choice","Experiment_block_start","dinosaur.bmp","97","340","33","32","15","4","Reversal","32","15","2","right","36","33","0.6999999999999999556","0.2999999999999999889","IRIF","0","-1","1","39","159","77","101","0","22","50.5","38.5"
"6.4.2","Reversal_Task","1","2021-09-27","19:49:17","fixation","Experiment_block_start","+","97","340","33","32","15","4","Reversal","32","15","2","right","36","33","0.6999999999999999556","0.2999999999999999889","IRIF","0","-1","1","39","159","77","101","0","22","50.5","38.5"
"6.4.2","Reversal_Task","1","2021-09-27","19:49:17","choice","Experiment_block_start","dinosaur.bmp","97","320","33","32","15","4","Reversal","32","15","1","left","33","36","0.6999999999999999556","0.2999999999999999889","CRCF","0","1","1","40","160","77","101","0","22","50.5","38.5"
"6.4.2","Reversal_Task","1","2021-09-27","19:49:17","fixation","Experiment_block_start","+","97","320","33","32","15","4","Reversal","32","15","1","left","33","36","0.6999999999999999556","0.2999999999999999889","CRCF","0","1","1","40","160","78","102","1","22","51","39"
"6.4.2","Reversal_Task","1","2021-09-27","19:49:17","reset_trial","Experiment_block_start","Press SPACE to continue","97","320","33","32","15","5","Reversal","32","15","1","left","33","36","0.6999999999999999556","0.2999999999999999889","CRCF","0","1","1","0","160","78","102","0","25","51","39"
"6.4.2","Reversal_Task","1","2021-09-27","19:49:17","choice","Experiment_block_start","pear.bmp","100","263","33","16","27","5","Acquisiton","16","27","1","left","33","36","0.6999999999999999556","0.2999999999999999889","CRCF","0","1","1","1","161","78","102","0","25","51","39"
"6.4.2","Reversal_Task","1","2021-09-27","19:49:17","fixation","Experiment_block_start","+","100","263","33","16","27","5","Acquisiton","16","27","1","left","33","36","0.6999999999999999556","0.2999999999999999889","CRCF","0","1","1","1","161","79","103","1","25","51.5","39.5"
"6.4.2","Reversal_Task","1","2021-09-27","19:49:17","choice","Experiment_block_start","pear.bmp","100","115","33","16","27","5","Acquisiton","16","27","2","right","36","33","0.6999999999999999556","0.2999999999999999889","IRCF","0","-1","-1","2","162","79","103","1","25","51.5","39.5"
"6.4.2","Reversal_Task","1","2021-09-27","19:49:17","fixation","Experiment_block_start","+","100","115","33","16","27","5","Acquisiton","16","27","2","right","36","33","0.6999999999999999556","0.2999999999999999889","IRCF","0","-1","-1","2","162","80","103","0","25","51.5","40"
"6.4.2","Reversal_Task","1","2021-09-27","19:49:17","choice","Experiment_block_start","pear.bmp","100","0","33","16","27","5","Acquisiton","16","27","1","left","33","36","0.6999999999999999556","0.2999999999999999889","CRCF","0","1","1","3","163","80","103","0","25","51.5","40"
"6.4.2","Reversal_Task","1","2021-09-27","19:49:17","fixation","Experiment_block_start","+","100","0","33","16","27","5","Acquisiton","16","27","1","left","33","36","0.6999999999999999556","0.2999999999999999889","CRCF","0","1","1","3","163","81","104","1","25","52","40.5"
"6.4.2","Reversal_Task","1","2021-09-27","19:49:17","choice","Experiment_block_start","pear.bmp","100","3","33","16","27","5","Acquisiton","16","27","2","right","36","33","0.6999999999999999556","0.2999999999999999889","IRIF","0","-1","1","4","164","81","104","1","25","52","40.5"
"6.4.2","Reversal_Task","1","2021-09-27","19:49:17","fixation","Experiment_block_start","+","100","3","33","16","27","5","Acquisiton","16","27","2","right","36","33","0.6999999999999999556","0.2999999999999999889","IRIF","0","-1","1","4","164","81","104","0","25","52","40.5"
"6.4.2","Reversal_Task","1","2021-09-27","19:49:17","choice","Experiment_block_start","pear.bmp","100","10","33","16","27","5","Acquisiton","16","27","1","left","33","36","0.6999999999999999556","0.2999999999999999889","CRIF","0","1","-1","5","165","81","104","0","25","52","40.5"
"6.4.2","Reversal_Task","1","2021-09-27","19:49:17","fixation","Experiment_block_start","+","100","10","33","16","27","5","Acquisiton","16","27","1","left","33","36","0.6999999999999999556","0.2999999999999999889","CRIF","0","1","-1","5","165","81","105","1","25","52.5","40.5"
"6.4.2","Reversal_Task","1","2021-09-27","19:49:17","choice","Experiment_block_start","pear.bmp","100","10","33","16","27","5","Acquisiton","16","27","1","left","33","36","0.6999999999999999556","0.2999999999999999889","CRCF","0","1","1","6","166","81","105","1","25","52.5","40.5"
"6.4.2","Reversal_Task","1","2021-09-27","19:49:17","fixation","Experiment_block_start","+","100","10","33","16","27","5","Acquisiton","16","27","1","left","33","36","0.6999999999999999556","0.2999999999999999889","CRCF","0","1","1","6","166","82","106","2","25","53","41"
"6.4.2","Reversal_Task","1","2021-09-27","19:49:17","choice","Experiment_block_start","pear.bmp","100","312","33","16","27","5","Acquisiton","16","27","1","left","33","36","0.6999999999999999556","0.2999999999999999889","CRCF","0","1","1","7","167","82","106","2","25","53","41"
"6.4.2","Reversal_Task","1","2021-09-27","19:49:17","fixation","Experiment_block_start","+","100","312","33","16","27","5","Acquisiton","16","27","1","left","33","36","0.6999999999999999556","0.2999999999999999889","CRCF","0","1","1","7","167","83","107","3","25","53.5","41.5"
"6.4.2","Reversal_Task","1","2021-09-27","19:49:17","choice","Experiment_block_start","pear.bmp","100","348","33","16","27","5","Acquisiton","16","27","1","left","33","36","0.6999999999999999556","0.2999999999999999889","CRIF","0","1","-1","8","168","83","107","3","25","53.5","41.5"
"6.4.2","Reversal_Task","1","2021-09-27","19:49:17","fixation","Experiment_block_start","+","100","348","33","16","27","5","Acquisiton","16","27","1","left","33","36","0.6999999999999999556","0.2999999999999999889","CRIF","0","1","-1","8","168","83","108","4","25","54","41.5"
"6.4.2","Reversal_Task","1","2021-09-27","19:49:17","choice","Experiment_block_start","pear.bmp","100","293","33","16","27","5","Acquisiton","16","27","1","left","33","36","0.6999999999999999556","0.2999999999999999889","CRIF","0","1","-1","9","169","83","108","4","25","54","41.5"
"6.4.2","Reversal_Task","1","2021-09-27","19:49:17","fixation","Experiment_block_start","+","100","293","33","16","27","5","Acquisiton","16","27","1","left","33","36","0.6999999999999999556","0.2999999999999999889","CRIF","0","1","-1","9","169","83","109","5","25","54.5","41.5"
"6.4.2","Reversal_Task","1","2021-09-27","19:49:17","choice","Experiment_block_start","pear.bmp","100","50","33","16","27","5","Acquisiton","16","27","2","right","36","33","0.6999999999999999556","0.2999999999999999889","IRCF","0","-1","-1","10","170","83","109","5","25","54.5","41.5"
"6.4.2","Reversal_Task","1","2021-09-27","19:49:17","fixation","Experiment_block_start","+","100","50","33","16","27","5","Acquisiton","16","27","2","right","36","33","0.6999999999999999556","0.2999999999999999889","IRCF","0","-1","-1","10","170","84","109","0","25","54.5","42"
"6.4.2","Reversal_Task","1","2021-09-27","19:49:17","choice","Experiment_block_start","pear.bmp","100","178","33","16","27","5","Acquisiton","16","27","1","left","33","36","0.6999999999999999556","0.2999999999999999889","CRCF","0","1","1","11","171","84","109","0","25","54.5","42"
"6.4.2","Reversal_Task","1","2021-09-27","19:49:17","fixation","Experiment_block_start","+","100","178","33","16","27","5","Acquisiton","16","27","1","left","33","36","0.6999999999999999556","0.2999999999999999889","CRCF","0","1","1","11","171","85","110","1","25","55","42.5"
"6.4.2","Reversal_Task","1","2021-09-27","19:49:17","choice","Experiment_block_start","pear.bmp","100","25","33","16","27","5","Acquisiton","16","27","2","right","36","33","0.6999999999999999556","0.2999999999999999889","IRIF","0","-1","1","12","172","85","110","1","25","55","42.5"
"6.4.2","Reversal_Task","1","2021-09-27","19:49:17","fixation","Experiment_block_start","+","100","25","33","16","27","5","Acquisiton","16","27","2","right","36","33","0.6999999999999999556","0.2999999999999999889","IRIF","0","-1","1","12","172","85","110","0","25","55","42.5"
"6.4.2","Reversal_Task","1","2021-09-27","19:49:17","choice","Experiment_block_start","pear.bmp","100","530","33","16","27","5","Acquisiton","16","27","1","left","33","36","0.6999999999999999556","0.2999999999999999889","CRCF","0","1","1","13","173","85","110","0","25","55","42.5"
"6.4.2","Reversal_Task","1","2021-09-27","19:49:17","fixation","Experiment_block_start","+","100","530","33","16","27","5","Acquisiton","16","27","1","left","33","36","0.6999999999999999556","0.2999999999999999889","CRCF","0","1","1","13","173","86","111","1","25","55.5","43"
"6.4.2","Reversal_Task","1","2021-09-27","19:49:17","choice","Experiment_block_start","pear.bmp","100","268","33","16","27","5","Acquisiton","16","27","2","right","36","33","0.6999999999999999556","0.2999999999999999889","IRIF","0","-1","1","14","174","86","111","1","25","55.5","43"
"6.4.2","Reversal_Task","1","2021-09-27","19:49:17","fixation","Experiment_block_start","+","100","268","33","16","27","5","Acquisiton","16","27","2","right","36","33","0.6999999999999999556","0.2999999999999999889","IRIF","0","-1","1","14","174","86","111","0","25","55.5","43"
"6.4.2","Reversal_Task","1","2021-09-27","19:49:17","choice","Experiment_block_start","pear.bmp","93","2000","0","16","27","5","Acquisiton","16","27","2","right","36","33","0.6999999999999999556","0.2999999999999999889","NRNF","0","0","1","15","175","86","111","0","25","55.5","43"
"6.4.2","Reversal_Task","1","2021-09-27","19:49:17","fixation","Experiment_block_start","+","93","2000","0","16","27","5","Acquisiton","16","27","2","right","36","33","0.6999999999999999556","0.2999999999999999889","NRNF","0","0","1","15","175","86","111","0","25","55.5","43"
"6.4.2","Reversal_Task","1","2021-09-27","19:49:17","choice","Experiment_block_start","pear.bmp","87","2000","0","16","27","5","Acquisiton","16","27","1","left","33","36","0.6999999999999999556","0.2999999999999999889","NRNF","0","0","1","16","176","86","111","0","25","55.5","43"
