"build","experimentName","subject","date","time","trialcode","blockcode","stimulusitem1","trial.choice.percentcorrect","trial.choice.latency","trial.choice.response","rt","picture.correctStim.currentvalue","picture.incorrectStim.currentvalue","block_number","task_phase","index_correctChoice","index_incorrectChoice","correctChoicePosition","correctKey","incorrectKey","percentTrialsCorrectFeedback_correctStim","percentTrialsCorrectFeedback_incorrectStim","responseAndFeedbackCategory","isThisTrialPractice","isResponseCorrect","isFeedbackAccurate","trial_number","total_trialnum","numbercorrectfeedback","totalcorrect","rightleftcorrect","consecutivecorrect","reversalnumber","totalearnings","centsearned"
"6.4.2","Reversal_Task","1","2021-09-24","16:58:24","choice","Experiment_block_start","fan.bmp","100","429","33","429","6","7","1","Acquisiton","6","7","2","36","33","0.6999999999999999556","0.2999999999999999889","IRIF","0","-1","1","1","1","0","6","left","0","22","3","0"
"6.4.2","Reversal_Task","1","2021-09-24","16:58:24","fixation","Experiment_block_start","+","100","429","33","429","6","7","1","Acquisiton","6","7","2","36","33","0.6999999999999999556","0.2999999999999999889","IRIF","0","-1","1","1","1","0","6","left","0","22","3","0"
"6.4.2","Reversal_Task","1","2021-09-24","16:58:24","choice","Experiment_block_start","fan.bmp","100","222","36","222","6","7","1","Acquisiton","6","7","1","33","36","0.6999999999999999556","0.2999999999999999889","IRIF","0","-1","1","2","2","0","6","left","0","22","3","0"
"6.4.2","Reversal_Task","1","2021-09-24","16:58:24","fixation","Experiment_block_start","+","100","222","36","222","6","7","1","Acquisiton","6","7","1","33","36","0.6999999999999999556","0.2999999999999999889","IRIF","0","-1","1","2","2","0","6","left","0","22","3","0"
"6.4.2","Reversal_Task","1","2021-09-24","16:58:24","choice","Experiment_block_start","fan.bmp","100","1093","36","1093","6","7","1","Acquisiton","6","7","2","36","33","0.6999999999999999556","0.2999999999999999889","CRCF","0","1","1","3","3","0","6","left","0","22","3","0"
"6.4.2","Reversal_Task","1","2021-09-24","16:58:24","fixation","Experiment_block_start","+","100","1093","36","1093","6","7","1","Acquisiton","6","7","2","36","33","0.6999999999999999556","0.2999999999999999889","CRCF","0","1","1","3","3","1","6","left","1","22","3","0.5"
"6.4.2","Reversal_Task","1","2021-09-24","16:58:24","choice","Experiment_block_start","fan.bmp","100","256","36","256","6","7","1","Acquisiton","6","7","1","33","36","0.6999999999999999556","0.2999999999999999889","IRCF","0","-1","-1","4","4","1","6","left","1","22","3","0.5"
"6.4.2","Reversal_Task","1","2021-09-24","16:58:24","fixation","Experiment_block_start","+","100","256","36","256","6","7","1","Acquisiton","6","7","1","33","36","0.6999999999999999556","0.2999999999999999889","IRCF","0","-1","-1","4","4","2","6","left","0","22","3","1"
"6.4.2","Reversal_Task","1","2021-09-24","16:58:24","choice","Experiment_block_start","fan.bmp","100","166","36","166","6","7","1","Acquisiton","6","7","2","36","33","0.6999999999999999556","0.2999999999999999889","CRCF","0","1","1","5","5","2","6","left","0","22","3","1"
"6.4.2","Reversal_Task","1","2021-09-24","16:58:24","fixation","Experiment_block_start","+","100","166","36","166","6","7","1","Acquisiton","6","7","2","36","33","0.6999999999999999556","0.2999999999999999889","CRCF","0","1","1","5","5","3","6","left","1","22","3","1.5"
"6.4.2","Reversal_Task","1","2021-09-24","16:58:24","choice","Experiment_block_start","fan.bmp","100","292","36","292","6","7","1","Acquisiton","6","7","2","36","33","0.6999999999999999556","0.2999999999999999889","CRCF","0","1","1","6","6","3","6","left","1","22","3","1.5"
"6.4.2","Reversal_Task","1","2021-09-24","16:58:24","fixation","Experiment_block_start","+","100","292","36","292","6","7","1","Acquisiton","6","7","2","36","33","0.6999999999999999556","0.2999999999999999889","CRCF","0","1","1","6","6","4","6","left","2","22","3","2"
"6.4.2","Reversal_Task","1","2021-09-24","16:58:24","choice","Experiment_block_start","fan.bmp","100","408","33","408","6","7","1","Acquisiton","6","7","1","33","36","0.6999999999999999556","0.2999999999999999889","CRCF","0","1","1","7","7","4","6","left","2","22","3","2"
"6.4.2","Reversal_Task","1","2021-09-24","16:58:24","fixation","Experiment_block_start","+","100","408","33","408","6","7","1","Acquisiton","6","7","1","33","36","0.6999999999999999556","0.2999999999999999889","CRCF","0","1","1","7","7","5","6","left","3","22","3","2.5"
"6.4.2","Reversal_Task","1","2021-09-24","16:58:24","choice","Experiment_block_start","fan.bmp","100","380","33","380","6","7","1","Acquisiton","6","7","1","33","36","0.6999999999999999556","0.2999999999999999889","CRCF","0","1","1","8","8","5","6","left","3","22","3","2.5"
"6.4.2","Reversal_Task","1","2021-09-24","16:58:24","fixation","Experiment_block_start","+","100","380","33","380","6","7","1","Acquisiton","6","7","1","33","36","0.6999999999999999556","0.2999999999999999889","CRCF","0","1","1","8","8","6","6","left","4","22","3","3"
"6.4.2","Reversal_Task","1","2021-09-24","16:58:24","choice","Experiment_block_start","fan.bmp","100","380","33","380","6","7","1","Acquisiton","6","7","1","33","36","0.6999999999999999556","0.2999999999999999889","CRCF","0","1","1","9","9","6","6","left","4","22","3","3"
"6.4.2","Reversal_Task","1","2021-09-24","16:58:24","fixation","Experiment_block_start","+","100","380","33","380","6","7","1","Acquisiton","6","7","1","33","36","0.6999999999999999556","0.2999999999999999889","CRCF","0","1","1","9","9","7","6","left","5","22","3","3.5"
"6.4.2","Reversal_Task","1","2021-09-24","16:58:24","choice","Experiment_block_start","fan.bmp","100","309","36","309","6","7","1","Acquisiton","6","7","2","36","33","0.6999999999999999556","0.2999999999999999889","CRIF","0","1","-1","10","10","7","6","left","5","22","3","3.5"
"6.4.2","Reversal_Task","1","2021-09-24","16:58:24","fixation","Experiment_block_start","+","100","309","36","309","6","7","1","Acquisiton","6","7","2","36","33","0.6999999999999999556","0.2999999999999999889","CRIF","0","1","-1","10","10","7","6","left","6","22","3","3.5"
"6.4.2","Reversal_Task","1","2021-09-24","16:58:24","choice","Experiment_block_start","fan.bmp","100","525","36","525","6","7","1","Acquisiton","6","7","2","36","33","0.6999999999999999556","0.2999999999999999889","CRCF","0","1","1","11","11","7","6","left","6","22","3","3.5"
"6.4.2","Reversal_Task","1","2021-09-24","16:58:24","fixation","Experiment_block_start","+","100","525","36","525","6","7","1","Acquisiton","6","7","2","36","33","0.6999999999999999556","0.2999999999999999889","CRCF","0","1","1","11","11","8","6","left","7","22","3","4"
"6.4.2","Reversal_Task","1","2021-09-24","16:58:24","choice","Experiment_block_start","fan.bmp","100","351","36","351","6","7","1","Acquisiton","6","7","2","36","33","0.6999999999999999556","0.2999999999999999889","CRCF","0","1","1","12","12","8","6","left","7","22","3","4"
"6.4.2","Reversal_Task","1","2021-09-24","16:58:24","fixation","Experiment_block_start","+","100","351","36","351","6","7","1","Acquisiton","6","7","2","36","33","0.6999999999999999556","0.2999999999999999889","CRCF","0","1","1","12","12","9","6","left","8","22","3","4.5"
"6.4.2","Reversal_Task","1","2021-09-24","16:58:24","choice","Experiment_block_start","fan.bmp","100","494","33","494","6","7","1","Acquisiton","6","7","1","33","36","0.6999999999999999556","0.2999999999999999889","CRCF","0","1","1","13","13","9","6","left","8","22","3","4.5"
"6.4.2","Reversal_Task","1","2021-09-24","16:58:24","fixation","Experiment_block_start","+","100","494","33","494","6","7","1","Acquisiton","6","7","1","33","36","0.6999999999999999556","0.2999999999999999889","CRCF","0","1","1","13","13","10","6","left","9","22","3","5"
"6.4.2","Reversal_Task","1","2021-09-24","16:58:24","choice","Experiment_block_start","fan.bmp","100","462","36","462","6","7","1","Acquisiton","6","7","2","36","33","0.6999999999999999556","0.2999999999999999889","CRCF","0","1","1","14","14","10","6","left","9","22","3","5"
"6.4.2","Reversal_Task","1","2021-09-24","16:58:24","fixation","Experiment_block_start","+","100","462","36","462","6","7","1","Acquisiton","6","7","2","36","33","0.6999999999999999556","0.2999999999999999889","CRCF","0","1","1","14","14","11","6","left","10","22","3","5.5"
"6.4.2","Reversal_Task","1","2021-09-24","16:58:24","choice","Experiment_block_start","fan.bmp","100","358","33","358","6","7","1","Acquisiton","6","7","1","33","36","0.6999999999999999556","0.2999999999999999889","CRCF","0","1","1","15","15","11","6","left","10","22","3","5.5"
"6.4.2","Reversal_Task","1","2021-09-24","16:58:24","fixation","Experiment_block_start","+","100","358","33","358","6","7","1","Acquisiton","6","7","1","33","36","0.6999999999999999556","0.2999999999999999889","CRCF","0","1","1","15","15","12","6","left","11","22","3","6"
"6.4.2","Reversal_Task","1","2021-09-24","16:58:24","choice","Experiment_block_start","fan.bmp","100","406","33","406","6","7","1","Acquisiton","6","7","1","33","36","0.6999999999999999556","0.2999999999999999889","CRIF","0","1","-1","16","16","12","6","left","11","22","3","6"
"6.4.2","Reversal_Task","1","2021-09-24","16:58:24","fixation","Experiment_block_start","+","100","406","33","406","6","7","1","Acquisiton","6","7","1","33","36","0.6999999999999999556","0.2999999999999999889","CRIF","0","1","-1","16","16","12","6","left","12","22","3","6"
"6.4.2","Reversal_Task","1","2021-09-24","16:58:24","choice","Experiment_block_start","fan.bmp","100","628","33","628","6","7","1","Acquisiton","6","7","1","33","36","0.6999999999999999556","0.2999999999999999889","CRCF","0","1","1","17","17","12","6","left","12","22","3","6"
"6.4.2","Reversal_Task","1","2021-09-24","16:58:24","fixation","Experiment_block_start","+","100","628","33","628","6","7","1","Acquisiton","6","7","1","33","36","0.6999999999999999556","0.2999999999999999889","CRCF","0","1","1","17","17","13","6","left","13","22","3","6.5"
"6.4.2","Reversal_Task","1","2021-09-24","16:58:24","choice","Experiment_block_start","fan.bmp","100","460","36","460","6","7","1","Acquisiton","6","7","2","36","33","0.6999999999999999556","0.2999999999999999889","CRCF","0","1","1","18","18","13","6","left","13","22","3","6.5"
"6.4.2","Reversal_Task","1","2021-09-24","16:58:24","fixation","Experiment_block_start","+","100","460","36","460","6","7","1","Acquisiton","6","7","2","36","33","0.6999999999999999556","0.2999999999999999889","CRCF","0","1","1","18","18","14","6","left","14","22","3","7"
"6.4.2","Reversal_Task","1","2021-09-24","16:58:24","choice","Experiment_block_start","fan.bmp","100","630","36","630","6","7","1","Acquisiton","6","7","2","36","33","0.6999999999999999556","0.2999999999999999889","CRIF","0","1","-1","19","19","14","6","left","14","22","3","7"
"6.4.2","Reversal_Task","1","2021-09-24","16:58:24","fixation","Experiment_block_start","+","100","630","36","630","6","7","1","Acquisiton","6","7","2","36","33","0.6999999999999999556","0.2999999999999999889","CRIF","0","1","-1","19","19","14","6","left","15","22","3","7"
"6.4.2","Reversal_Task","1","2021-09-24","16:58:24","choice","Experiment_block_start","fan.bmp","100","403","36","403","6","7","1","Acquisiton","6","7","2","36","33","0.6999999999999999556","0.2999999999999999889","CRIF","0","1","-1","20","20","14","6","left","15","22","3","7"
"6.4.2","Reversal_Task","1","2021-09-24","16:58:24","fixation","Experiment_block_start","+","100","403","36","403","6","7","1","Acquisiton","6","7","2","36","33","0.6999999999999999556","0.2999999999999999889","CRIF","0","1","-1","20","20","14","6","left","16","22","3","7"
"6.4.2","Reversal_Task","1","2021-09-24","16:58:24","choice","Experiment_block_start","fan.bmp","100","280","33","280","6","7","1","Acquisiton","6","7","1","33","36","0.6999999999999999556","0.2999999999999999889","CRCF","0","1","1","21","21","14","6","left","16","22","3","7"
"6.4.2","Reversal_Task","1","2021-09-24","16:58:24","fixation","Experiment_block_start","+","100","280","33","280","6","7","1","Acquisiton","6","7","1","33","36","0.6999999999999999556","0.2999999999999999889","CRCF","0","1","1","21","21","15","6","left","17","22","3","7.5"
"6.4.2","Reversal_Task","1","2021-09-24","16:58:24","choice","Experiment_block_start","fan.bmp","100","554","36","554","6","7","1","Acquisiton","6","7","2","36","33","0.6999999999999999556","0.2999999999999999889","CRCF","0","1","1","22","22","15","6","left","17","22","3","7.5"
"6.4.2","Reversal_Task","1","2021-09-24","16:58:24","fixation","Experiment_block_start","+","100","554","36","554","6","7","1","Acquisiton","6","7","2","36","33","0.6999999999999999556","0.2999999999999999889","CRCF","0","1","1","22","22","16","6","left","18","22","3","8"
"6.4.2","Reversal_Task","1","2021-09-24","16:58:24","choice","Experiment_block_start","watermelon.bmp","100","312","33","312","7","6","1","Reversal","7","6","2","36","33","0.6999999999999999556","0.2999999999999999889","IRIF","0","-1","1","23","23","16","6","left","18","22","3","8"
"6.4.2","Reversal_Task","1","2021-09-24","16:58:24","fixation","Experiment_block_start","+","100","312","33","312","7","6","1","Reversal","7","6","2","36","33","0.6999999999999999556","0.2999999999999999889","IRIF","0","-1","1","23","23","16","6","left","0","22","3","8"
"6.4.2","Reversal_Task","1","2021-09-24","16:58:24","choice","Experiment_block_start","watermelon.bmp","100","281","33","281","7","6","1","Reversal","7","6","2","36","33","0.6999999999999999556","0.2999999999999999889","IRIF","0","-1","1","24","24","16","6","left","0","22","3","8"
"6.4.2","Reversal_Task","1","2021-09-24","16:58:24","fixation","Experiment_block_start","+","100","281","33","281","7","6","1","Reversal","7","6","2","36","33","0.6999999999999999556","0.2999999999999999889","IRIF","0","-1","1","24","24","16","6","left","0","22","3","8"
"6.4.2","Reversal_Task","1","2021-09-24","16:58:24","choice","Experiment_block_start","watermelon.bmp","100","355","36","355","7","6","1","Reversal","7","6","1","33","36","0.6999999999999999556","0.2999999999999999889","IRIF","0","-1","1","25","25","16","6","left","0","22","3","8"
"6.4.2","Reversal_Task","1","2021-09-24","16:58:24","fixation","Experiment_block_start","+","100","355","36","355","7","6","1","Reversal","7","6","1","33","36","0.6999999999999999556","0.2999999999999999889","IRIF","0","-1","1","25","25","16","6","left","0","22","3","8"
"6.4.2","Reversal_Task","1","2021-09-24","16:58:24","choice","Experiment_block_start","watermelon.bmp","100","483","33","483","7","6","1","Reversal","7","6","2","36","33","0.6999999999999999556","0.2999999999999999889","IRCF","0","-1","-1","26","26","16","6","left","0","22","3","8"
"6.4.2","Reversal_Task","1","2021-09-24","16:58:24","fixation","Experiment_block_start","+","100","483","33","483","7","6","1","Reversal","7","6","2","36","33","0.6999999999999999556","0.2999999999999999889","IRCF","0","-1","-1","26","26","17","6","left","0","22","3","8.5"
"6.4.2","Reversal_Task","1","2021-09-24","16:58:24","choice","Experiment_block_start","watermelon.bmp","100","392","33","392","7","6","1","Reversal","7","6","2","36","33","0.6999999999999999556","0.2999999999999999889","IRCF","0","-1","-1","27","27","17","6","left","0","22","3","8.5"
"6.4.2","Reversal_Task","1","2021-09-24","16:58:24","fixation","Experiment_block_start","+","100","392","33","392","7","6","1","Reversal","7","6","2","36","33","0.6999999999999999556","0.2999999999999999889","IRCF","0","-1","-1","27","27","18","6","left","0","22","3","9"
"6.4.2","Reversal_Task","1","2021-09-24","16:58:24","choice","Experiment_block_start","watermelon.bmp","100","450","33","450","7","6","1","Reversal","7","6","1","33","36","0.6999999999999999556","0.2999999999999999889","CRCF","0","1","1","28","28","18","6","left","0","22","3","9"
"6.4.2","Reversal_Task","1","2021-09-24","16:58:24","fixation","Experiment_block_start","+","100","450","33","450","7","6","1","Reversal","7","6","1","33","36","0.6999999999999999556","0.2999999999999999889","CRCF","0","1","1","28","28","19","6","left","1","22","3","9.5"
"6.4.2","Reversal_Task","1","2021-09-24","16:58:24","choice","Experiment_block_start","watermelon.bmp","100","560","36","560","7","6","1","Reversal","7","6","2","36","33","0.6999999999999999556","0.2999999999999999889","CRCF","0","1","1","29","29","19","6","left","1","22","3","9.5"
"6.4.2","Reversal_Task","1","2021-09-24","16:58:24","fixation","Experiment_block_start","+","100","560","36","560","7","6","1","Reversal","7","6","2","36","33","0.6999999999999999556","0.2999999999999999889","CRCF","0","1","1","29","29","20","6","left","2","22","3","10"
"6.4.2","Reversal_Task","1","2021-09-24","16:58:24","choice","Experiment_block_start","watermelon.bmp","100","219","33","219","7","6","1","Reversal","7","6","1","33","36","0.6999999999999999556","0.2999999999999999889","CRCF","0","1","1","30","30","20","6","left","2","22","3","10"
"6.4.2","Reversal_Task","1","2021-09-24","16:58:24","fixation","Experiment_block_start","+","100","219","33","219","7","6","1","Reversal","7","6","1","33","36","0.6999999999999999556","0.2999999999999999889","CRCF","0","1","1","30","30","21","6","left","3","22","3","10.5"
"6.4.2","Reversal_Task","1","2021-09-24","16:58:24","choice","Experiment_block_start","watermelon.bmp","100","356","33","356","7","6","1","Reversal","7","6","1","33","36","0.6999999999999999556","0.2999999999999999889","CRCF","0","1","1","31","31","21","6","left","3","22","3","10.5"
"6.4.2","Reversal_Task","1","2021-09-24","16:58:24","fixation","Experiment_block_start","+","100","356","33","356","7","6","1","Reversal","7","6","1","33","36","0.6999999999999999556","0.2999999999999999889","CRCF","0","1","1","31","31","22","6","left","4","22","3","11"
"6.4.2","Reversal_Task","1","2021-09-24","16:58:24","choice","Experiment_block_start","watermelon.bmp","100","243","36","243","7","6","1","Reversal","7","6","2","36","33","0.6999999999999999556","0.2999999999999999889","CRIF","0","1","-1","32","32","22","6","left","4","22","3","11"
"6.4.2","Reversal_Task","1","2021-09-24","16:58:24","fixation","Experiment_block_start","+","100","243","36","243","7","6","1","Reversal","7","6","2","36","33","0.6999999999999999556","0.2999999999999999889","CRIF","0","1","-1","32","32","22","6","left","5","22","3","11"
"6.4.2","Reversal_Task","1","2021-09-24","16:58:24","choice","Experiment_block_start","watermelon.bmp","100","317","33","317","7","6","1","Reversal","7","6","1","33","36","0.6999999999999999556","0.2999999999999999889","CRCF","0","1","1","33","33","22","6","left","5","22","3","11"
"6.4.2","Reversal_Task","1","2021-09-24","16:58:24","fixation","Experiment_block_start","+","100","317","33","317","7","6","1","Reversal","7","6","1","33","36","0.6999999999999999556","0.2999999999999999889","CRCF","0","1","1","33","33","23","6","left","6","22","3","11.5"
"6.4.2","Reversal_Task","1","2021-09-24","16:58:24","choice","Experiment_block_start","watermelon.bmp","100","294","33","294","7","6","1","Reversal","7","6","1","33","36","0.6999999999999999556","0.2999999999999999889","CRIF","0","1","-1","34","34","23","6","left","6","22","3","11.5"
"6.4.2","Reversal_Task","1","2021-09-24","16:58:24","fixation","Experiment_block_start","+","100","294","33","294","7","6","1","Reversal","7","6","1","33","36","0.6999999999999999556","0.2999999999999999889","CRIF","0","1","-1","34","34","23","6","left","7","22","3","11.5"
"6.4.2","Reversal_Task","1","2021-09-24","16:58:24","choice","Experiment_block_start","watermelon.bmp","100","296","33","296","7","6","1","Reversal","7","6","1","33","36","0.6999999999999999556","0.2999999999999999889","CRIF","0","1","-1","35","35","23","6","left","7","22","3","11.5"
"6.4.2","Reversal_Task","1","2021-09-24","16:58:24","fixation","Experiment_block_start","+","100","296","33","296","7","6","1","Reversal","7","6","1","33","36","0.6999999999999999556","0.2999999999999999889","CRIF","0","1","-1","35","35","23","6","left","8","22","3","11.5"
"6.4.2","Reversal_Task","1","2021-09-24","16:58:24","choice","Experiment_block_start","watermelon.bmp","100","219","36","219","7","6","1","Reversal","7","6","1","33","36","0.6999999999999999556","0.2999999999999999889","IRIF","0","-1","1","36","36","23","6","left","8","22","3","11.5"
"6.4.2","Reversal_Task","1","2021-09-24","16:58:24","fixation","Experiment_block_start","+","100","219","36","219","7","6","1","Reversal","7","6","1","33","36","0.6999999999999999556","0.2999999999999999889","IRIF","0","-1","1","36","36","23","6","left","0","22","3","11.5"
"6.4.2","Reversal_Task","1","2021-09-24","16:58:24","choice","Experiment_block_start","watermelon.bmp","100","132","33","132","7","6","1","Reversal","7","6","2","36","33","0.6999999999999999556","0.2999999999999999889","IRIF","0","-1","1","37","37","23","6","left","0","22","3","11.5"
"6.4.2","Reversal_Task","1","2021-09-24","16:58:24","fixation","Experiment_block_start","+","100","132","33","132","7","6","1","Reversal","7","6","2","36","33","0.6999999999999999556","0.2999999999999999889","IRIF","0","-1","1","37","37","23","6","left","0","22","3","11.5"
"6.4.2","Reversal_Task","1","2021-09-24","16:58:24","choice","Experiment_block_start","watermelon.bmp","100","358","33","358","7","6","1","Reversal","7","6","1","33","36","0.6999999999999999556","0.2999999999999999889","CRIF","0","1","-1","38","38","23","6","left","0","22","3","11.5"
"6.4.2","Reversal_Task","1","2021-09-24","16:58:24","fixation","Experiment_block_start","+","100","358","33","358","7","6","1","Reversal","7","6","1","33","36","0.6999999999999999556","0.2999999999999999889","CRIF","0","1","-1","38","38","23","6","left","1","22","3","11.5"
"6.4.2","Reversal_Task","1","2021-09-24","16:58:24","choice","Experiment_block_start","watermelon.bmp","100","401","36","401","7","6","1","Reversal","7","6","2","36","33","0.6999999999999999556","0.2999999999999999889","CRIF","0","1","-1","39","39","23","6","left","1","22","3","11.5"
"6.4.2","Reversal_Task","1","2021-09-24","16:58:24","fixation","Experiment_block_start","+","100","401","36","401","7","6","1","Reversal","7","6","2","36","33","0.6999999999999999556","0.2999999999999999889","CRIF","0","1","-1","39","39","23","6","left","2","22","3","11.5"
"6.4.2","Reversal_Task","1","2021-09-24","16:58:24","choice","Experiment_block_start","watermelon.bmp","100","221","33","221","7","6","1","Reversal","7","6","1","33","36","0.6999999999999999556","0.2999999999999999889","CRCF","0","1","1","40","40","23","6","left","2","22","3","11.5"
"6.4.2","Reversal_Task","1","2021-09-24","16:58:24","fixation","Experiment_block_start","+","100","221","33","221","7","6","2","Reversal","7","6","1","33","36","0.6999999999999999556","0.2999999999999999889","CRCF","0","1","1","40","40","24","6","left","3","22","3","12"
"6.4.2","Reversal_Task","1","2021-09-24","16:58:24","reset_trial","Experiment_block_start","Press SPACE to continue","100","221","33","221","7","6","2","Reversal","7","6","1","33","36","0.6999999999999999556","0.2999999999999999889","CRCF","0","1","1","40","40","0","30","left","3","17","15","0"
"6.4.2","Reversal_Task","1","2021-09-24","16:58:24","choice","Experiment_block_start","fan.bmp","100","418","33","418","6","30","2","Acquisiton","6","30","2","36","33","0.6999999999999999556","0.2999999999999999889","IRIF","0","-1","1","1","41","0","30","left","0","17","15","0"
"6.4.2","Reversal_Task","1","2021-09-24","16:58:24","fixation","Experiment_block_start","+","100","418","33","418","6","30","2","Acquisiton","6","30","2","36","33","0.6999999999999999556","0.2999999999999999889","IRIF","0","-1","1","1","41","0","30","left","0","17","15","0"
"6.4.2","Reversal_Task","1","2021-09-24","16:58:24","choice","Experiment_block_start","fan.bmp","100","493","36","493","6","30","2","Acquisiton","6","30","2","36","33","0.6999999999999999556","0.2999999999999999889","CRIF","0","1","-1","2","42","0","30","left","0","17","15","0"
"6.4.2","Reversal_Task","1","2021-09-24","16:58:24","fixation","Experiment_block_start","+","100","493","36","493","6","30","2","Acquisiton","6","30","2","36","33","0.6999999999999999556","0.2999999999999999889","CRIF","0","1","-1","2","42","0","30","left","1","17","15","0"
"6.4.2","Reversal_Task","1","2021-09-24","16:58:24","choice","Experiment_block_start","fan.bmp","100","258","33","258","6","30","2","Acquisiton","6","30","2","36","33","0.6999999999999999556","0.2999999999999999889","IRIF","0","-1","1","3","43","0","30","left","1","17","15","0"
"6.4.2","Reversal_Task","1","2021-09-24","16:58:24","fixation","Experiment_block_start","+","100","258","33","258","6","30","2","Acquisiton","6","30","2","36","33","0.6999999999999999556","0.2999999999999999889","IRIF","0","-1","1","3","43","0","30","left","0","17","15","0"
"6.4.2","Reversal_Task","1","2021-09-24","16:58:24","choice","Experiment_block_start","fan.bmp","100","320","36","320","6","30","2","Acquisiton","6","30","2","36","33","0.6999999999999999556","0.2999999999999999889","CRCF","0","1","1","4","44","0","30","left","0","17","15","0"
"6.4.2","Reversal_Task","1","2021-09-24","16:58:24","fixation","Experiment_block_start","+","100","320","36","320","6","30","2","Acquisiton","6","30","2","36","33","0.6999999999999999556","0.2999999999999999889","CRCF","0","1","1","4","44","1","30","left","1","17","15","0.5"
"6.4.2","Reversal_Task","1","2021-09-24","16:58:24","choice","Experiment_block_start","fan.bmp","100","276","36","276","6","30","2","Acquisiton","6","30","2","36","33","0.6999999999999999556","0.2999999999999999889","CRIF","0","1","-1","5","45","1","30","left","1","17","15","0.5"
"6.4.2","Reversal_Task","1","2021-09-24","16:58:24","fixation","Experiment_block_start","+","100","276","36","276","6","30","2","Acquisiton","6","30","2","36","33","0.6999999999999999556","0.2999999999999999889","CRIF","0","1","-1","5","45","1","30","left","2","17","15","0.5"
"6.4.2","Reversal_Task","1","2021-09-24","16:58:24","choice","Experiment_block_start","fan.bmp","100","462","33","462","6","30","2","Acquisiton","6","30","1","33","36","0.6999999999999999556","0.2999999999999999889","CRCF","0","1","1","6","46","1","30","left","2","17","15","0.5"
"6.4.2","Reversal_Task","1","2021-09-24","16:58:24","fixation","Experiment_block_start","+","100","462","33","462","6","30","2","Acquisiton","6","30","1","33","36","0.6999999999999999556","0.2999999999999999889","CRCF","0","1","1","6","46","2","30","left","3","17","15","1"
"6.4.2","Reversal_Task","1","2021-09-24","16:58:24","choice","Experiment_block_start","fan.bmp","100","352","33","352","6","30","2","Acquisiton","6","30","1","33","36","0.6999999999999999556","0.2999999999999999889","CRCF","0","1","1","7","47","2","30","left","3","17","15","1"
"6.4.2","Reversal_Task","1","2021-09-24","16:58:24","fixation","Experiment_block_start","+","100","352","33","352","6","30","2","Acquisiton","6","30","1","33","36","0.6999999999999999556","0.2999999999999999889","CRCF","0","1","1","7","47","3","30","left","4","17","15","1.5"
"6.4.2","Reversal_Task","1","2021-09-24","16:58:24","choice","Experiment_block_start","fan.bmp","100","340","33","340","6","30","2","Acquisiton","6","30","1","33","36","0.6999999999999999556","0.2999999999999999889","CRCF","0","1","1","8","48","3","30","left","4","17","15","1.5"
"6.4.2","Reversal_Task","1","2021-09-24","16:58:24","fixation","Experiment_block_start","+","100","340","33","340","6","30","2","Acquisiton","6","30","1","33","36","0.6999999999999999556","0.2999999999999999889","CRCF","0","1","1","8","48","4","30","left","5","17","15","2"
"6.4.2","Reversal_Task","1","2021-09-24","16:58:24","choice","Experiment_block_start","fan.bmp","100","465","36","465","6","30","2","Acquisiton","6","30","2","36","33","0.6999999999999999556","0.2999999999999999889","CRCF","0","1","1","9","49","4","30","left","5","17","15","2"
"6.4.2","Reversal_Task","1","2021-09-24","16:58:24","fixation","Experiment_block_start","+","100","465","36","465","6","30","2","Acquisiton","6","30","2","36","33","0.6999999999999999556","0.2999999999999999889","CRCF","0","1","1","9","49","5","30","left","6","17","15","2.5"
"6.4.2","Reversal_Task","1","2021-09-24","16:58:24","choice","Experiment_block_start","fan.bmp","100","419","33","419","6","30","2","Acquisiton","6","30","1","33","36","0.6999999999999999556","0.2999999999999999889","CRIF","0","1","-1","10","50","5","30","left","6","17","15","2.5"
"6.4.2","Reversal_Task","1","2021-09-24","16:58:24","fixation","Experiment_block_start","+","100","419","33","419","6","30","2","Acquisiton","6","30","1","33","36","0.6999999999999999556","0.2999999999999999889","CRIF","0","1","-1","10","50","5","30","left","7","17","15","2.5"
"6.4.2","Reversal_Task","1","2021-09-24","16:58:24","choice","Experiment_block_start","fan.bmp","100","548","36","548","6","30","2","Acquisiton","6","30","2","36","33","0.6999999999999999556","0.2999999999999999889","CRCF","0","1","1","11","51","5","30","left","7","17","15","2.5"
"6.4.2","Reversal_Task","1","2021-09-24","16:58:24","fixation","Experiment_block_start","+","100","548","36","548","6","30","2","Acquisiton","6","30","2","36","33","0.6999999999999999556","0.2999999999999999889","CRCF","0","1","1","11","51","6","30","left","8","17","15","3"
"6.4.2","Reversal_Task","1","2021-09-24","16:58:24","choice","Experiment_block_start","fan.bmp","100","235","33","235","6","30","2","Acquisiton","6","30","1","33","36","0.6999999999999999556","0.2999999999999999889","CRIF","0","1","-1","12","52","6","30","left","8","17","15","3"
"6.4.2","Reversal_Task","1","2021-09-24","16:58:24","fixation","Experiment_block_start","+","100","235","33","235","6","30","2","Acquisiton","6","30","1","33","36","0.6999999999999999556","0.2999999999999999889","CRIF","0","1","-1","12","52","6","30","left","9","17","15","3"
"6.4.2","Reversal_Task","1","2021-09-24","16:58:24","choice","Experiment_block_start","fan.bmp","100","442","33","442","6","30","2","Acquisiton","6","30","1","33","36","0.6999999999999999556","0.2999999999999999889","CRIF","0","1","-1","13","53","6","30","left","9","17","15","3"
"6.4.2","Reversal_Task","1","2021-09-24","16:58:24","fixation","Experiment_block_start","+","100","442","33","442","6","30","2","Acquisiton","6","30","1","33","36","0.6999999999999999556","0.2999999999999999889","CRIF","0","1","-1","13","53","6","30","left","10","17","15","3"
"6.4.2","Reversal_Task","1","2021-09-24","16:58:24","choice","Experiment_block_start","fan.bmp","100","439","36","439","6","30","2","Acquisiton","6","30","2","36","33","0.6999999999999999556","0.2999999999999999889","CRCF","0","1","1","14","54","6","30","left","10","17","15","3"
"6.4.2","Reversal_Task","1","2021-09-24","16:58:24","fixation","Experiment_block_start","+","100","439","36","439","6","30","2","Acquisiton","6","30","2","36","33","0.6999999999999999556","0.2999999999999999889","CRCF","0","1","1","14","54","7","30","left","11","17","15","3.5"
"6.4.2","Reversal_Task","1","2021-09-24","16:58:24","choice","Experiment_block_start","fan.bmp","100","461","33","461","6","30","2","Acquisiton","6","30","1","33","36","0.6999999999999999556","0.2999999999999999889","CRCF","0","1","1","15","55","7","30","left","11","17","15","3.5"
"6.4.2","Reversal_Task","1","2021-09-24","16:58:24","fixation","Experiment_block_start","+","100","461","33","461","6","30","2","Acquisiton","6","30","1","33","36","0.6999999999999999556","0.2999999999999999889","CRCF","0","1","1","15","55","8","30","left","12","17","15","4"
"6.4.2","Reversal_Task","1","2021-09-24","16:58:24","choice","Experiment_block_start","fan.bmp","100","369","33","369","6","30","2","Acquisiton","6","30","1","33","36","0.6999999999999999556","0.2999999999999999889","CRCF","0","1","1","16","56","8","30","left","12","17","15","4"
"6.4.2","Reversal_Task","1","2021-09-24","16:58:24","fixation","Experiment_block_start","+","100","369","33","369","6","30","2","Acquisiton","6","30","1","33","36","0.6999999999999999556","0.2999999999999999889","CRCF","0","1","1","16","56","9","30","left","13","17","15","4.5"
"6.4.2","Reversal_Task","1","2021-09-24","16:58:24","choice","Experiment_block_start","fan.bmp","100","353","36","353","6","30","2","Acquisiton","6","30","2","36","33","0.6999999999999999556","0.2999999999999999889","CRCF","0","1","1","17","57","9","30","left","13","17","15","4.5"
"6.4.2","Reversal_Task","1","2021-09-24","16:58:24","fixation","Experiment_block_start","+","100","353","36","353","6","30","2","Acquisiton","6","30","2","36","33","0.6999999999999999556","0.2999999999999999889","CRCF","0","1","1","17","57","10","30","left","14","17","15","5"
"6.4.2","Reversal_Task","1","2021-09-24","16:58:24","choice","Experiment_block_start","clipboard.bmp","100","301","33","301","30","6","2","Reversal","30","6","2","36","33","0.6999999999999999556","0.2999999999999999889","IRCF","0","-1","-1","18","58","10","30","left","14","17","15","5"
"6.4.2","Reversal_Task","1","2021-09-24","16:58:24","fixation","Experiment_block_start","+","100","301","33","301","30","6","2","Reversal","30","6","2","36","33","0.6999999999999999556","0.2999999999999999889","IRCF","0","-1","-1","18","58","11","30","left","0","17","15","5.5"
"6.4.2","Reversal_Task","1","2021-09-24","16:58:24","choice","Experiment_block_start","clipboard.bmp","100","371","33","371","30","6","2","Reversal","30","6","2","36","33","0.6999999999999999556","0.2999999999999999889","IRIF","0","-1","1","19","59","11","30","left","0","17","15","5.5"
"6.4.2","Reversal_Task","1","2021-09-24","16:58:24","fixation","Experiment_block_start","+","100","371","33","371","30","6","2","Reversal","30","6","2","36","33","0.6999999999999999556","0.2999999999999999889","IRIF","0","-1","1","19","59","11","30","left","0","17","15","5.5"
"6.4.2","Reversal_Task","1","2021-09-24","16:58:24","choice","Experiment_block_start","clipboard.bmp","100","331","33","331","30","6","2","Reversal","30","6","2","36","33","0.6999999999999999556","0.2999999999999999889","IRIF","0","-1","1","20","60","11","30","left","0","17","15","5.5"
"6.4.2","Reversal_Task","1","2021-09-24","16:58:24","fixation","Experiment_block_start","+","100","331","33","331","30","6","2","Reversal","30","6","2","36","33","0.6999999999999999556","0.2999999999999999889","IRIF","0","-1","1","20","60","11","30","left","0","17","15","5.5"
"6.4.2","Reversal_Task","1","2021-09-24","16:58:24","choice","Experiment_block_start","clipboard.bmp","100","284","33","284","30","6","2","Reversal","30","6","2","36","33","0.6999999999999999556","0.2999999999999999889","IRCF","0","-1","-1","21","61","11","30","left","0","17","15","5.5"
"6.4.2","Reversal_Task","1","2021-09-24","16:58:24","fixation","Experiment_block_start","+","100","284","33","284","30","6","2","Reversal","30","6","2","36","33","0.6999999999999999556","0.2999999999999999889","IRCF","0","-1","-1","21","61","12","30","left","0","17","15","6"
"6.4.2","Reversal_Task","1","2021-09-24","16:58:24","choice","Experiment_block_start","clipboard.bmp","100","344","33","344","30","6","2","Reversal","30","6","2","36","33","0.6999999999999999556","0.2999999999999999889","IRIF","0","-1","1","22","62","12","30","left","0","17","15","6"
"6.4.2","Reversal_Task","1","2021-09-24","16:58:24","fixation","Experiment_block_start","+","100","344","33","344","30","6","2","Reversal","30","6","2","36","33","0.6999999999999999556","0.2999999999999999889","IRIF","0","-1","1","22","62","12","30","left","0","17","15","6"
"6.4.2","Reversal_Task","1","2021-09-24","16:58:24","choice","Experiment_block_start","clipboard.bmp","100","243","33","243","30","6","2","Reversal","30","6","1","33","36","0.6999999999999999556","0.2999999999999999889","CRIF","0","1","-1","23","63","12","30","left","0","17","15","6"
"6.4.2","Reversal_Task","1","2021-09-24","16:58:24","fixation","Experiment_block_start","+","100","243","33","243","30","6","2","Reversal","30","6","1","33","36","0.6999999999999999556","0.2999999999999999889","CRIF","0","1","-1","23","63","12","30","left","1","17","15","6"
"6.4.2","Reversal_Task","1","2021-09-24","16:58:24","choice","Experiment_block_start","clipboard.bmp","100","388","33","388","30","6","2","Reversal","30","6","2","36","33","0.6999999999999999556","0.2999999999999999889","IRIF","0","-1","1","24","64","12","30","left","1","17","15","6"
"6.4.2","Reversal_Task","1","2021-09-24","16:58:24","fixation","Experiment_block_start","+","100","388","33","388","30","6","2","Reversal","30","6","2","36","33","0.6999999999999999556","0.2999999999999999889","IRIF","0","-1","1","24","64","12","30","left","0","17","15","6"
"6.4.2","Reversal_Task","1","2021-09-24","16:58:24","choice","Experiment_block_start","clipboard.bmp","100","306","33","306","30","6","2","Reversal","30","6","2","36","33","0.6999999999999999556","0.2999999999999999889","IRIF","0","-1","1","25","65","12","30","left","0","17","15","6"
"6.4.2","Reversal_Task","1","2021-09-24","16:58:24","fixation","Experiment_block_start","+","100","306","33","306","30","6","2","Reversal","30","6","2","36","33","0.6999999999999999556","0.2999999999999999889","IRIF","0","-1","1","25","65","12","30","left","0","17","15","6"
"6.4.2","Reversal_Task","1","2021-09-24","16:58:24","choice","Experiment_block_start","clipboard.bmp","100","444","36","444","30","6","2","Reversal","30","6","1","33","36","0.6999999999999999556","0.2999999999999999889","IRIF","0","-1","1","26","66","12","30","left","0","17","15","6"
"6.4.2","Reversal_Task","1","2021-09-24","16:58:24","fixation","Experiment_block_start","+","100","444","36","444","30","6","2","Reversal","30","6","1","33","36","0.6999999999999999556","0.2999999999999999889","IRIF","0","-1","1","26","66","12","30","left","0","17","15","6"
"6.4.2","Reversal_Task","1","2021-09-24","16:58:24","choice","Experiment_block_start","clipboard.bmp","100","223","33","223","30","6","2","Reversal","30","6","2","36","33","0.6999999999999999556","0.2999999999999999889","IRIF","0","-1","1","27","67","12","30","left","0","17","15","6"
"6.4.2","Reversal_Task","1","2021-09-24","16:58:24","fixation","Experiment_block_start","+","100","223","33","223","30","6","2","Reversal","30","6","2","36","33","0.6999999999999999556","0.2999999999999999889","IRIF","0","-1","1","27","67","12","30","left","0","17","15","6"
"6.4.2","Reversal_Task","1","2021-09-24","16:58:24","choice","Experiment_block_start","clipboard.bmp","100","350","33","350","30","6","2","Reversal","30","6","2","36","33","0.6999999999999999556","0.2999999999999999889","IRIF","0","-1","1","28","68","12","30","left","0","17","15","6"
"6.4.2","Reversal_Task","1","2021-09-24","16:58:24","fixation","Experiment_block_start","+","100","350","33","350","30","6","2","Reversal","30","6","2","36","33","0.6999999999999999556","0.2999999999999999889","IRIF","0","-1","1","28","68","12","30","left","0","17","15","6"
"6.4.2","Reversal_Task","1","2021-09-24","16:58:24","choice","Experiment_block_start","clipboard.bmp","100","464","36","464","30","6","2","Reversal","30","6","1","33","36","0.6999999999999999556","0.2999999999999999889","IRIF","0","-1","1","29","69","12","30","left","0","17","15","6"
"6.4.2","Reversal_Task","1","2021-09-24","16:58:24","fixation","Experiment_block_start","+","100","464","36","464","30","6","2","Reversal","30","6","1","33","36","0.6999999999999999556","0.2999999999999999889","IRIF","0","-1","1","29","69","12","30","left","0","17","15","6"
"6.4.2","Reversal_Task","1","2021-09-24","16:58:24","choice","Experiment_block_start","clipboard.bmp","100","253","33","253","30","6","2","Reversal","30","6","1","33","36","0.6999999999999999556","0.2999999999999999889","CRIF","0","1","-1","30","70","12","30","left","0","17","15","6"
"6.4.2","Reversal_Task","1","2021-09-24","16:58:24","fixation","Experiment_block_start","+","100","253","33","253","30","6","2","Reversal","30","6","1","33","36","0.6999999999999999556","0.2999999999999999889","CRIF","0","1","-1","30","70","12","30","left","1","17","15","6"
"6.4.2","Reversal_Task","1","2021-09-24","16:58:24","choice","Experiment_block_start","clipboard.bmp","100","302","33","302","30","6","2","Reversal","30","6","2","36","33","0.6999999999999999556","0.2999999999999999889","IRIF","0","-1","1","31","71","12","30","left","1","17","15","6"
"6.4.2","Reversal_Task","1","2021-09-24","16:58:24","fixation","Experiment_block_start","+","100","302","33","302","30","6","2","Reversal","30","6","2","36","33","0.6999999999999999556","0.2999999999999999889","IRIF","0","-1","1","31","71","12","30","left","0","17","15","6"
"6.4.2","Reversal_Task","1","2021-09-24","16:58:24","choice","Experiment_block_start","clipboard.bmp","100","345","33","345","30","6","2","Reversal","30","6","2","36","33","0.6999999999999999556","0.2999999999999999889","IRIF","0","-1","1","32","72","12","30","left","0","17","15","6"
"6.4.2","Reversal_Task","1","2021-09-24","16:58:24","fixation","Experiment_block_start","+","100","345","33","345","30","6","2","Reversal","30","6","2","36","33","0.6999999999999999556","0.2999999999999999889","IRIF","0","-1","1","32","72","12","30","left","0","17","15","6"
"6.4.2","Reversal_Task","1","2021-09-24","16:58:24","choice","Experiment_block_start","clipboard.bmp","100","304","33","304","30","6","2","Reversal","30","6","2","36","33","0.6999999999999999556","0.2999999999999999889","IRCF","0","-1","-1","33","73","12","30","left","0","17","15","6"
"6.4.2","Reversal_Task","1","2021-09-24","16:58:24","fixation","Experiment_block_start","+","100","304","33","304","30","6","2","Reversal","30","6","2","36","33","0.6999999999999999556","0.2999999999999999889","IRCF","0","-1","-1","33","73","13","30","left","0","17","15","6.5"
"6.4.2","Reversal_Task","1","2021-09-24","16:58:24","choice","Experiment_block_start","clipboard.bmp","100","440","36","440","30","6","2","Reversal","30","6","1","33","36","0.6999999999999999556","0.2999999999999999889","IRIF","0","-1","1","34","74","13","30","left","0","17","15","6.5"
"6.4.2","Reversal_Task","1","2021-09-24","16:58:24","fixation","Experiment_block_start","+","100","440","36","440","30","6","2","Reversal","30","6","1","33","36","0.6999999999999999556","0.2999999999999999889","IRIF","0","-1","1","34","74","13","30","left","0","17","15","6.5"
"6.4.2","Reversal_Task","1","2021-09-24","16:58:24","choice","Experiment_block_start","clipboard.bmp","100","304","33","304","30","6","2","Reversal","30","6","2","36","33","0.6999999999999999556","0.2999999999999999889","IRCF","0","-1","-1","35","75","13","30","left","0","17","15","6.5"
"6.4.2","Reversal_Task","1","2021-09-24","16:58:24","fixation","Experiment_block_start","+","100","304","33","304","30","6","2","Reversal","30","6","2","36","33","0.6999999999999999556","0.2999999999999999889","IRCF","0","-1","-1","35","75","14","30","left","0","17","15","7"
"6.4.2","Reversal_Task","1","2021-09-24","16:58:24","choice","Experiment_block_start","clipboard.bmp","100","306","33","306","30","6","2","Reversal","30","6","2","36","33","0.6999999999999999556","0.2999999999999999889","IRCF","0","-1","-1","36","76","14","30","left","0","17","15","7"
"6.4.2","Reversal_Task","1","2021-09-24","16:58:24","fixation","Experiment_block_start","+","100","306","33","306","30","6","2","Reversal","30","6","2","36","33","0.6999999999999999556","0.2999999999999999889","IRCF","0","-1","-1","36","76","15","30","left","0","17","15","7.5"
"6.4.2","Reversal_Task","1","2021-09-24","16:58:24","choice","Experiment_block_start","clipboard.bmp","100","321","33","321","30","6","2","Reversal","30","6","2","36","33","0.6999999999999999556","0.2999999999999999889","IRIF","0","-1","1","37","77","15","30","left","0","17","15","7.5"
"6.4.2","Reversal_Task","1","2021-09-24","16:58:24","fixation","Experiment_block_start","+","100","321","33","321","30","6","2","Reversal","30","6","2","36","33","0.6999999999999999556","0.2999999999999999889","IRIF","0","-1","1","37","77","15","30","left","0","17","15","7.5"
"6.4.2","Reversal_Task","1","2021-09-24","16:58:24","choice","Experiment_block_start","clipboard.bmp","100","258","33","258","30","6","2","Reversal","30","6","1","33","36","0.6999999999999999556","0.2999999999999999889","CRCF","0","1","1","38","78","15","30","left","0","17","15","7.5"
"6.4.2","Reversal_Task","1","2021-09-24","16:58:24","fixation","Experiment_block_start","+","100","258","33","258","30","6","2","Reversal","30","6","1","33","36","0.6999999999999999556","0.2999999999999999889","CRCF","0","1","1","38","78","16","30","left","1","17","15","8"
"6.4.2","Reversal_Task","1","2021-09-24","16:58:24","choice","Experiment_block_start","clipboard.bmp","100","377","33","377","30","6","2","Reversal","30","6","1","33","36","0.6999999999999999556","0.2999999999999999889","CRCF","0","1","1","39","79","16","30","left","1","17","15","8"
"6.4.2","Reversal_Task","1","2021-09-24","16:58:24","fixation","Experiment_block_start","+","100","377","33","377","30","6","2","Reversal","30","6","1","33","36","0.6999999999999999556","0.2999999999999999889","CRCF","0","1","1","39","79","17","30","left","2","17","15","8.5"
"6.4.2","Reversal_Task","1","2021-09-24","16:58:24","choice","Experiment_block_start","clipboard.bmp","100","463","36","463","30","6","2","Reversal","30","6","2","36","33","0.6999999999999999556","0.2999999999999999889","CRCF","0","1","1","40","80","17","30","left","2","17","15","8.5"
"6.4.2","Reversal_Task","1","2021-09-24","16:58:24","fixation","Experiment_block_start","+","100","463","36","463","30","6","3","Reversal","30","6","2","36","33","0.6999999999999999556","0.2999999999999999889","CRCF","0","1","1","40","80","18","30","left","3","17","15","9"
"6.4.2","Reversal_Task","1","2021-09-24","16:58:24","reset_trial","Experiment_block_start","Press SPACE to continue","100","463","36","463","30","6","3","Reversal","30","6","2","36","33","0.6999999999999999556","0.2999999999999999889","CRCF","0","1","1","40","80","0","48","left","3","22","24","0"
"6.4.2","Reversal_Task","1","2021-09-24","16:58:24","choice","Experiment_block_start","pinecone.bmp","100","452","33","452","17","40","3","Acquisiton","17","40","1","33","36","0.6999999999999999556","0.2999999999999999889","CRCF","0","1","1","1","81","0","48","left","0","22","24","0"
"6.4.2","Reversal_Task","1","2021-09-24","16:58:24","fixation","Experiment_block_start","+","100","452","33","452","17","40","3","Acquisiton","17","40","1","33","36","0.6999999999999999556","0.2999999999999999889","CRCF","0","1","1","1","81","1","48","left","1","22","24","0.5"
"6.4.2","Reversal_Task","1","2021-09-24","16:58:24","choice","Experiment_block_start","pinecone.bmp","100","361","36","361","17","40","3","Acquisiton","17","40","2","36","33","0.6999999999999999556","0.2999999999999999889","CRCF","0","1","1","2","82","1","48","left","1","22","24","0.5"
"6.4.2","Reversal_Task","1","2021-09-24","16:58:24","fixation","Experiment_block_start","+","100","361","36","361","17","40","3","Acquisiton","17","40","2","36","33","0.6999999999999999556","0.2999999999999999889","CRCF","0","1","1","2","82","2","48","left","2","22","24","1"
"6.4.2","Reversal_Task","1","2021-09-24","16:58:24","choice","Experiment_block_start","pinecone.bmp","100","233","33","233","17","40","3","Acquisiton","17","40","1","33","36","0.6999999999999999556","0.2999999999999999889","CRCF","0","1","1","3","83","2","48","left","2","22","24","1"
"6.4.2","Reversal_Task","1","2021-09-24","16:58:24","fixation","Experiment_block_start","+","100","233","33","233","17","40","3","Acquisiton","17","40","1","33","36","0.6999999999999999556","0.2999999999999999889","CRCF","0","1","1","3","83","3","48","left","3","22","24","1.5"
"6.4.2","Reversal_Task","1","2021-09-24","16:58:24","choice","Experiment_block_start","pinecone.bmp","100","283","36","283","17","40","3","Acquisiton","17","40","2","36","33","0.6999999999999999556","0.2999999999999999889","CRIF","0","1","-1","4","84","3","48","left","3","22","24","1.5"
"6.4.2","Reversal_Task","1","2021-09-24","16:58:24","fixation","Experiment_block_start","+","100","283","36","283","17","40","3","Acquisiton","17","40","2","36","33","0.6999999999999999556","0.2999999999999999889","CRIF","0","1","-1","4","84","3","48","left","4","22","24","1.5"
"6.4.2","Reversal_Task","1","2021-09-24","16:58:24","choice","Experiment_block_start","pinecone.bmp","100","224","33","224","17","40","3","Acquisiton","17","40","1","33","36","0.6999999999999999556","0.2999999999999999889","CRIF","0","1","-1","5","85","3","48","left","4","22","24","1.5"
"6.4.2","Reversal_Task","1","2021-09-24","16:58:24","fixation","Experiment_block_start","+","100","224","33","224","17","40","3","Acquisiton","17","40","1","33","36","0.6999999999999999556","0.2999999999999999889","CRIF","0","1","-1","5","85","3","48","left","5","22","24","1.5"
"6.4.2","Reversal_Task","1","2021-09-24","16:58:24","choice","Experiment_block_start","pinecone.bmp","100","209","36","209","17","40","3","Acquisiton","17","40","2","36","33","0.6999999999999999556","0.2999999999999999889","CRIF","0","1","-1","6","86","3","48","left","5","22","24","1.5"
"6.4.2","Reversal_Task","1","2021-09-24","16:58:24","fixation","Experiment_block_start","+","100","209","36","209","17","40","3","Acquisiton","17","40","2","36","33","0.6999999999999999556","0.2999999999999999889","CRIF","0","1","-1","6","86","3","48","left","6","22","24","1.5"
"6.4.2","Reversal_Task","1","2021-09-24","16:58:24","choice","Experiment_block_start","pinecone.bmp","100","504","36","504","17","40","3","Acquisiton","17","40","1","33","36","0.6999999999999999556","0.2999999999999999889","IRIF","0","-1","1","7","87","3","48","left","6","22","24","1.5"
"6.4.2","Reversal_Task","1","2021-09-24","16:58:24","fixation","Experiment_block_start","+","100","504","36","504","17","40","3","Acquisiton","17","40","1","33","36","0.6999999999999999556","0.2999999999999999889","IRIF","0","-1","1","7","87","3","48","left","0","22","24","1.5"
"6.4.2","Reversal_Task","1","2021-09-24","16:58:24","choice","Experiment_block_start","pinecone.bmp","100","137","33","137","17","40","3","Acquisiton","17","40","2","36","33","0.6999999999999999556","0.2999999999999999889","IRIF","0","-1","1","8","88","3","48","left","0","22","24","1.5"
"6.4.2","Reversal_Task","1","2021-09-24","16:58:24","fixation","Experiment_block_start","+","100","137","33","137","17","40","3","Acquisiton","17","40","2","36","33","0.6999999999999999556","0.2999999999999999889","IRIF","0","-1","1","8","88","3","48","left","0","22","24","1.5"
"6.4.2","Reversal_Task","1","2021-09-24","16:58:24","choice","Experiment_block_start","pinecone.bmp","100","383","36","383","17","40","3","Acquisiton","17","40","2","36","33","0.6999999999999999556","0.2999999999999999889","CRCF","0","1","1","9","89","3","48","left","0","22","24","1.5"
"6.4.2","Reversal_Task","1","2021-09-24","16:58:24","fixation","Experiment_block_start","+","100","383","36","383","17","40","3","Acquisiton","17","40","2","36","33","0.6999999999999999556","0.2999999999999999889","CRCF","0","1","1","9","89","4","48","left","1","22","24","2"
"6.4.2","Reversal_Task","1","2021-09-24","16:58:24","choice","Experiment_block_start","pinecone.bmp","100","235","33","235","17","40","3","Acquisiton","17","40","2","36","33","0.6999999999999999556","0.2999999999999999889","IRIF","0","-1","1","10","90","4","48","left","1","22","24","2"
"6.4.2","Reversal_Task","1","2021-09-24","16:58:24","fixation","Experiment_block_start","+","100","235","33","235","17","40","3","Acquisiton","17","40","2","36","33","0.6999999999999999556","0.2999999999999999889","IRIF","0","-1","1","10","90","4","48","left","0","22","24","2"
"6.4.2","Reversal_Task","1","2021-09-24","16:58:24","choice","Experiment_block_start","pinecone.bmp","100","395","33","395","17","40","3","Acquisiton","17","40","1","33","36","0.6999999999999999556","0.2999999999999999889","CRCF","0","1","1","11","91","4","48","left","0","22","24","2"
"6.4.2","Reversal_Task","1","2021-09-24","16:58:24","fixation","Experiment_block_start","+","100","395","33","395","17","40","3","Acquisiton","17","40","1","33","36","0.6999999999999999556","0.2999999999999999889","CRCF","0","1","1","11","91","5","48","left","1","22","24","2.5"
"6.4.2","Reversal_Task","1","2021-09-24","16:58:24","choice","Experiment_block_start","pinecone.bmp","100","621","36","621","17","40","3","Acquisiton","17","40","2","36","33","0.6999999999999999556","0.2999999999999999889","CRCF","0","1","1","12","92","5","48","left","1","22","24","2.5"
"6.4.2","Reversal_Task","1","2021-09-24","16:58:24","fixation","Experiment_block_start","+","100","621","36","621","17","40","3","Acquisiton","17","40","2","36","33","0.6999999999999999556","0.2999999999999999889","CRCF","0","1","1","12","92","6","48","left","2","22","24","3"
"6.4.2","Reversal_Task","1","2021-09-24","16:58:24","choice","Experiment_block_start","pinecone.bmp","100","334","33","334","17","40","3","Acquisiton","17","40","1","33","36","0.6999999999999999556","0.2999999999999999889","CRIF","0","1","-1","13","93","6","48","left","2","22","24","3"
"6.4.2","Reversal_Task","1","2021-09-24","16:58:24","fixation","Experiment_block_start","+","100","334","33","334","17","40","3","Acquisiton","17","40","1","33","36","0.6999999999999999556","0.2999999999999999889","CRIF","0","1","-1","13","93","6","48","left","3","22","24","3"
"6.4.2","Reversal_Task","1","2021-09-24","16:58:24","choice","Experiment_block_start","pinecone.bmp","100","203","36","203","17","40","3","Acquisiton","17","40","1","33","36","0.6999999999999999556","0.2999999999999999889","IRIF","0","-1","1","14","94","6","48","left","3","22","24","3"
"6.4.2","Reversal_Task","1","2021-09-24","16:58:24","fixation","Experiment_block_start","+","100","203","36","203","17","40","3","Acquisiton","17","40","1","33","36","0.6999999999999999556","0.2999999999999999889","IRIF","0","-1","1","14","94","6","48","left","0","22","24","3"
"6.4.2","Reversal_Task","1","2021-09-24","16:58:24","choice","Experiment_block_start","pinecone.bmp","100","307","33","307","17","40","3","Acquisiton","17","40","1","33","36","0.6999999999999999556","0.2999999999999999889","CRIF","0","1","-1","15","95","6","48","left","0","22","24","3"
"6.4.2","Reversal_Task","1","2021-09-24","16:58:24","fixation","Experiment_block_start","+","100","307","33","307","17","40","3","Acquisiton","17","40","1","33","36","0.6999999999999999556","0.2999999999999999889","CRIF","0","1","-1","15","95","6","48","left","1","22","24","3"
"6.4.2","Reversal_Task","1","2021-09-24","16:58:24","choice","Experiment_block_start","pinecone.bmp","100","336","33","336","17","40","3","Acquisiton","17","40","1","33","36","0.6999999999999999556","0.2999999999999999889","CRCF","0","1","1","16","96","6","48","left","1","22","24","3"
"6.4.2","Reversal_Task","1","2021-09-24","16:58:24","fixation","Experiment_block_start","+","100","336","33","336","17","40","3","Acquisiton","17","40","1","33","36","0.6999999999999999556","0.2999999999999999889","CRCF","0","1","1","16","96","7","48","left","2","22","24","3.5"
"6.4.2","Reversal_Task","1","2021-09-24","16:58:24","choice","Experiment_block_start","pinecone.bmp","100","321","33","321","17","40","3","Acquisiton","17","40","1","33","36","0.6999999999999999556","0.2999999999999999889","CRIF","0","1","-1","17","97","7","48","left","2","22","24","3.5"
"6.4.2","Reversal_Task","1","2021-09-24","16:58:24","fixation","Experiment_block_start","+","100","321","33","321","17","40","3","Acquisiton","17","40","1","33","36","0.6999999999999999556","0.2999999999999999889","CRIF","0","1","-1","17","97","7","48","left","3","22","24","3.5"
"6.4.2","Reversal_Task","1","2021-09-24","16:58:24","choice","Experiment_block_start","pinecone.bmp","100","293","33","293","17","40","3","Acquisiton","17","40","1","33","36","0.6999999999999999556","0.2999999999999999889","CRCF","0","1","1","18","98","7","48","left","3","22","24","3.5"
"6.4.2","Reversal_Task","1","2021-09-24","16:58:24","fixation","Experiment_block_start","+","100","293","33","293","17","40","3","Acquisiton","17","40","1","33","36","0.6999999999999999556","0.2999999999999999889","CRCF","0","1","1","18","98","8","48","left","4","22","24","4"
"6.4.2","Reversal_Task","1","2021-09-24","16:58:24","choice","Experiment_block_start","pinecone.bmp","100","316","33","316","17","40","3","Acquisiton","17","40","1","33","36","0.6999999999999999556","0.2999999999999999889","CRIF","0","1","-1","19","99","8","48","left","4","22","24","4"
"6.4.2","Reversal_Task","1","2021-09-24","16:58:24","fixation","Experiment_block_start","+","100","316","33","316","17","40","3","Acquisiton","17","40","1","33","36","0.6999999999999999556","0.2999999999999999889","CRIF","0","1","-1","19","99","8","48","left","5","22","24","4"
"6.4.2","Reversal_Task","1","2021-09-24","16:58:24","choice","Experiment_block_start","pinecone.bmp","100","301","33","301","17","40","3","Acquisiton","17","40","1","33","36","0.6999999999999999556","0.2999999999999999889","CRCF","0","1","1","20","100","8","48","left","5","22","24","4"
"6.4.2","Reversal_Task","1","2021-09-24","16:58:24","fixation","Experiment_block_start","+","100","301","33","301","17","40","3","Acquisiton","17","40","1","33","36","0.6999999999999999556","0.2999999999999999889","CRCF","0","1","1","20","100","9","48","left","6","22","24","4.5"
"6.4.2","Reversal_Task","1","2021-09-24","16:58:24","choice","Experiment_block_start","pinecone.bmp","100","285","33","285","17","40","3","Acquisiton","17","40","1","33","36","0.6999999999999999556","0.2999999999999999889","CRCF","0","1","1","21","101","9","48","left","6","22","24","4.5"
"6.4.2","Reversal_Task","1","2021-09-24","16:58:24","fixation","Experiment_block_start","+","100","285","33","285","17","40","3","Acquisiton","17","40","1","33","36","0.6999999999999999556","0.2999999999999999889","CRCF","0","1","1","21","101","10","48","left","7","22","24","5"
"6.4.2","Reversal_Task","1","2021-09-24","16:58:24","choice","Experiment_block_start","pinecone.bmp","100","147","33","147","17","40","3","Acquisiton","17","40","2","36","33","0.6999999999999999556","0.2999999999999999889","IRIF","0","-1","1","22","102","10","48","left","7","22","24","5"
"6.4.2","Reversal_Task","1","2021-09-24","16:58:24","fixation","Experiment_block_start","+","100","147","33","147","17","40","3","Acquisiton","17","40","2","36","33","0.6999999999999999556","0.2999999999999999889","IRIF","0","-1","1","22","102","10","48","left","0","22","24","5"
"6.4.2","Reversal_Task","1","2021-09-24","16:58:24","choice","Experiment_block_start","sun.bmp","100","380","33","380","40","17","3","Reversal","40","17","2","36","33","0.6999999999999999556","0.2999999999999999889","IRIF","0","-1","1","23","103","10","48","left","0","22","24","5"
"6.4.2","Reversal_Task","1","2021-09-24","16:58:24","fixation","Experiment_block_start","+","100","380","33","380","40","17","3","Reversal","40","17","2","36","33","0.6999999999999999556","0.2999999999999999889","IRIF","0","-1","1","23","103","10","48","left","0","22","24","5"
"6.4.2","Reversal_Task","1","2021-09-24","16:58:24","choice","Experiment_block_start","sun.bmp","100","239","36","239","40","17","3","Reversal","40","17","1","33","36","0.6999999999999999556","0.2999999999999999889","IRIF","0","-1","1","24","104","10","48","left","0","22","24","5"
"6.4.2","Reversal_Task","1","2021-09-24","16:58:24","fixation","Experiment_block_start","+","100","239","36","239","40","17","3","Reversal","40","17","1","33","36","0.6999999999999999556","0.2999999999999999889","IRIF","0","-1","1","24","104","10","48","left","0","22","24","5"
"6.4.2","Reversal_Task","1","2021-09-24","16:58:24","choice","Experiment_block_start","sun.bmp","100","213","33","213","40","17","3","Reversal","40","17","2","36","33","0.6999999999999999556","0.2999999999999999889","IRIF","0","-1","1","25","105","10","48","left","0","22","24","5"
"6.4.2","Reversal_Task","1","2021-09-24","16:58:24","fixation","Experiment_block_start","+","100","213","33","213","40","17","3","Reversal","40","17","2","36","33","0.6999999999999999556","0.2999999999999999889","IRIF","0","-1","1","25","105","10","48","left","0","22","24","5"
"6.4.2","Reversal_Task","1","2021-09-24","16:58:24","choice","Experiment_block_start","sun.bmp","100","233","36","233","40","17","3","Reversal","40","17","2","36","33","0.6999999999999999556","0.2999999999999999889","CRIF","0","1","-1","26","106","10","48","left","0","22","24","5"
"6.4.2","Reversal_Task","1","2021-09-24","16:58:24","fixation","Experiment_block_start","+","100","233","36","233","40","17","3","Reversal","40","17","2","36","33","0.6999999999999999556","0.2999999999999999889","CRIF","0","1","-1","26","106","10","48","left","1","22","24","5"
"6.4.2","Reversal_Task","1","2021-09-24","16:58:24","choice","Experiment_block_start","sun.bmp","100","307","33","307","40","17","3","Reversal","40","17","2","36","33","0.6999999999999999556","0.2999999999999999889","IRIF","0","-1","1","27","107","10","48","left","1","22","24","5"
"6.4.2","Reversal_Task","1","2021-09-24","16:58:24","fixation","Experiment_block_start","+","100","307","33","307","40","17","3","Reversal","40","17","2","36","33","0.6999999999999999556","0.2999999999999999889","IRIF","0","-1","1","27","107","10","48","left","0","22","24","5"
"6.4.2","Reversal_Task","1","2021-09-24","16:58:24","choice","Experiment_block_start","sun.bmp","100","316","33","316","40","17","3","Reversal","40","17","2","36","33","0.6999999999999999556","0.2999999999999999889","IRCF","0","-1","-1","28","108","10","48","left","0","22","24","5"
"6.4.2","Reversal_Task","1","2021-09-24","16:58:24","fixation","Experiment_block_start","+","100","316","33","316","40","17","3","Reversal","40","17","2","36","33","0.6999999999999999556","0.2999999999999999889","IRCF","0","-1","-1","28","108","11","48","left","0","22","24","5.5"
"6.4.2","Reversal_Task","1","2021-09-24","16:58:24","choice","Experiment_block_start","sun.bmp","100","463","36","463","40","17","3","Reversal","40","17","1","33","36","0.6999999999999999556","0.2999999999999999889","IRIF","0","-1","1","29","109","11","48","left","0","22","24","5.5"
"6.4.2","Reversal_Task","1","2021-09-24","16:58:24","fixation","Experiment_block_start","+","100","463","36","463","40","17","3","Reversal","40","17","1","33","36","0.6999999999999999556","0.2999999999999999889","IRIF","0","-1","1","29","109","11","48","left","0","22","24","5.5"
"6.4.2","Reversal_Task","1","2021-09-24","16:58:24","choice","Experiment_block_start","sun.bmp","100","218","33","218","40","17","3","Reversal","40","17","2","36","33","0.6999999999999999556","0.2999999999999999889","IRIF","0","-1","1","30","110","11","48","left","0","22","24","5.5"
"6.4.2","Reversal_Task","1","2021-09-24","16:58:24","fixation","Experiment_block_start","+","100","218","33","218","40","17","3","Reversal","40","17","2","36","33","0.6999999999999999556","0.2999999999999999889","IRIF","0","-1","1","30","110","11","48","left","0","22","24","5.5"
"6.4.2","Reversal_Task","1","2021-09-24","16:58:24","choice","Experiment_block_start","sun.bmp","100","284","36","284","40","17","3","Reversal","40","17","1","33","36","0.6999999999999999556","0.2999999999999999889","IRIF","0","-1","1","31","111","11","48","left","0","22","24","5.5"
"6.4.2","Reversal_Task","1","2021-09-24","16:58:24","fixation","Experiment_block_start","+","100","284","36","284","40","17","3","Reversal","40","17","1","33","36","0.6999999999999999556","0.2999999999999999889","IRIF","0","-1","1","31","111","11","48","left","0","22","24","5.5"
"6.4.2","Reversal_Task","1","2021-09-24","16:58:24","choice","Experiment_block_start","sun.bmp","100","141","33","141","40","17","3","Reversal","40","17","1","33","36","0.6999999999999999556","0.2999999999999999889","CRCF","0","1","1","32","112","11","48","left","0","22","24","5.5"
"6.4.2","Reversal_Task","1","2021-09-24","16:58:24","fixation","Experiment_block_start","+","100","141","33","141","40","17","3","Reversal","40","17","1","33","36","0.6999999999999999556","0.2999999999999999889","CRCF","0","1","1","32","112","12","48","left","1","22","24","6"
"6.4.2","Reversal_Task","1","2021-09-24","16:58:24","choice","Experiment_block_start","sun.bmp","100","411","36","411","40","17","3","Reversal","40","17","1","33","36","0.6999999999999999556","0.2999999999999999889","IRCF","0","-1","-1","33","113","12","48","left","1","22","24","6"
"6.4.2","Reversal_Task","1","2021-09-24","16:58:24","fixation","Experiment_block_start","+","100","411","36","411","40","17","3","Reversal","40","17","1","33","36","0.6999999999999999556","0.2999999999999999889","IRCF","0","-1","-1","33","113","13","48","left","0","22","24","6.5"
"6.4.2","Reversal_Task","1","2021-09-24","16:58:24","choice","Experiment_block_start","sun.bmp","100","204","33","204","40","17","3","Reversal","40","17","1","33","36","0.6999999999999999556","0.2999999999999999889","CRIF","0","1","-1","34","114","13","48","left","0","22","24","6.5"
"6.4.2","Reversal_Task","1","2021-09-24","16:58:24","fixation","Experiment_block_start","+","100","204","33","204","40","17","3","Reversal","40","17","1","33","36","0.6999999999999999556","0.2999999999999999889","CRIF","0","1","-1","34","114","13","48","left","1","22","24","6.5"
"6.4.2","Reversal_Task","1","2021-09-24","16:58:24","choice","Experiment_block_start","sun.bmp","100","416","33","416","40","17","3","Reversal","40","17","2","36","33","0.6999999999999999556","0.2999999999999999889","IRCF","0","-1","-1","35","115","13","48","left","1","22","24","6.5"
"6.4.2","Reversal_Task","1","2021-09-24","16:58:24","fixation","Experiment_block_start","+","100","416","33","416","40","17","3","Reversal","40","17","2","36","33","0.6999999999999999556","0.2999999999999999889","IRCF","0","-1","-1","35","115","14","48","left","0","22","24","7"
"6.4.2","Reversal_Task","1","2021-09-24","16:58:24","choice","Experiment_block_start","sun.bmp","100","280","36","280","40","17","3","Reversal","40","17","1","33","36","0.6999999999999999556","0.2999999999999999889","IRIF","0","-1","1","36","116","14","48","left","0","22","24","7"
"6.4.2","Reversal_Task","1","2021-09-24","16:58:24","fixation","Experiment_block_start","+","100","280","36","280","40","17","3","Reversal","40","17","1","33","36","0.6999999999999999556","0.2999999999999999889","IRIF","0","-1","1","36","116","14","48","left","0","22","24","7"
"6.4.2","Reversal_Task","1","2021-09-24","16:58:24","choice","Experiment_block_start","sun.bmp","100","282","33","282","40","17","3","Reversal","40","17","2","36","33","0.6999999999999999556","0.2999999999999999889","IRIF","0","-1","1","37","117","14","48","left","0","22","24","7"
"6.4.2","Reversal_Task","1","2021-09-24","16:58:24","fixation","Experiment_block_start","+","100","282","33","282","40","17","3","Reversal","40","17","2","36","33","0.6999999999999999556","0.2999999999999999889","IRIF","0","-1","1","37","117","14","48","left","0","22","24","7"
"6.4.2","Reversal_Task","1","2021-09-24","16:58:24","choice","Experiment_block_start","sun.bmp","100","174","36","174","40","17","3","Reversal","40","17","2","36","33","0.6999999999999999556","0.2999999999999999889","CRCF","0","1","1","38","118","14","48","left","0","22","24","7"
"6.4.2","Reversal_Task","1","2021-09-24","16:58:24","fixation","Experiment_block_start","+","100","174","36","174","40","17","3","Reversal","40","17","2","36","33","0.6999999999999999556","0.2999999999999999889","CRCF","0","1","1","38","118","15","48","left","1","22","24","7.5"
"6.4.2","Reversal_Task","1","2021-09-24","16:58:24","choice","Experiment_block_start","sun.bmp","100","624","36","624","40","17","3","Reversal","40","17","2","36","33","0.6999999999999999556","0.2999999999999999889","CRCF","0","1","1","39","119","15","48","left","1","22","24","7.5"
"6.4.2","Reversal_Task","1","2021-09-24","16:58:24","fixation","Experiment_block_start","+","100","624","36","624","40","17","3","Reversal","40","17","2","36","33","0.6999999999999999556","0.2999999999999999889","CRCF","0","1","1","39","119","16","48","left","2","22","24","8"
"6.4.2","Reversal_Task","1","2021-09-24","16:58:24","choice","Experiment_block_start","sun.bmp","100","227","33","227","40","17","3","Reversal","40","17","1","33","36","0.6999999999999999556","0.2999999999999999889","CRCF","0","1","1","40","120","16","48","left","2","22","24","8"
"6.4.2","Reversal_Task","1","2021-09-24","16:58:24","fixation","Experiment_block_start","+","100","227","33","227","40","17","4","Reversal","40","17","1","33","36","0.6999999999999999556","0.2999999999999999889","CRCF","0","1","1","40","120","17","48","left","3","22","24","8.5"
"6.4.2","Reversal_Task","1","2021-09-24","16:58:24","reset_trial","Experiment_block_start","Press SPACE to continue","100","227","33","227","40","17","4","Reversal","40","17","1","33","36","0.6999999999999999556","0.2999999999999999889","CRCF","0","1","1","40","120","0","65","left","3","20","32.5","0"
"6.4.2","Reversal_Task","1","2021-09-24","16:58:24","choice","Experiment_block_start","watermelon.bmp","100","533","36","533","7","39","4","Acquisiton","7","39","2","36","33","0.6999999999999999556","0.2999999999999999889","CRIF","0","1","-1","1","121","0","65","left","0","20","32.5","0"
"6.4.2","Reversal_Task","1","2021-09-24","16:58:24","fixation","Experiment_block_start","+","100","533","36","533","7","39","4","Acquisiton","7","39","2","36","33","0.6999999999999999556","0.2999999999999999889","CRIF","0","1","-1","1","121","0","65","left","1","20","32.5","0"
"6.4.2","Reversal_Task","1","2021-09-24","16:58:24","choice","Experiment_block_start","watermelon.bmp","100","164","33","164","7","39","4","Acquisiton","7","39","1","33","36","0.6999999999999999556","0.2999999999999999889","CRCF","0","1","1","2","122","0","65","left","1","20","32.5","0"
"6.4.2","Reversal_Task","1","2021-09-24","16:58:24","fixation","Experiment_block_start","+","100","164","33","164","7","39","4","Acquisiton","7","39","1","33","36","0.6999999999999999556","0.2999999999999999889","CRCF","0","1","1","2","122","1","65","left","2","20","32.5","0.5"
"6.4.2","Reversal_Task","1","2021-09-24","16:58:24","choice","Experiment_block_start","watermelon.bmp","100","279","33","279","7","39","4","Acquisiton","7","39","1","33","36","0.6999999999999999556","0.2999999999999999889","CRCF","0","1","1","3","123","1","65","left","2","20","32.5","0.5"
"6.4.2","Reversal_Task","1","2021-09-24","16:58:24","fixation","Experiment_block_start","+","100","279","33","279","7","39","4","Acquisiton","7","39","1","33","36","0.6999999999999999556","0.2999999999999999889","CRCF","0","1","1","3","123","2","65","left","3","20","32.5","1"
"6.4.2","Reversal_Task","1","2021-09-24","16:58:24","choice","Experiment_block_start","watermelon.bmp","100","135","33","135","7","39","4","Acquisiton","7","39","2","36","33","0.6999999999999999556","0.2999999999999999889","IRCF","0","-1","-1","4","124","2","65","left","3","20","32.5","1"
"6.4.2","Reversal_Task","1","2021-09-24","16:58:24","fixation","Experiment_block_start","+","100","135","33","135","7","39","4","Acquisiton","7","39","2","36","33","0.6999999999999999556","0.2999999999999999889","IRCF","0","-1","-1","4","124","3","65","left","0","20","32.5","1.5"
"6.4.2","Reversal_Task","1","2021-09-24","16:58:24","choice","Experiment_block_start","watermelon.bmp","100","179","33","179","7","39","4","Acquisiton","7","39","1","33","36","0.6999999999999999556","0.2999999999999999889","CRCF","0","1","1","5","125","3","65","left","0","20","32.5","1.5"
"6.4.2","Reversal_Task","1","2021-09-24","16:58:24","fixation","Experiment_block_start","+","100","179","33","179","7","39","4","Acquisiton","7","39","1","33","36","0.6999999999999999556","0.2999999999999999889","CRCF","0","1","1","5","125","4","65","left","1","20","32.5","2"
"6.4.2","Reversal_Task","1","2021-09-24","16:58:24","choice","Experiment_block_start","watermelon.bmp","100","401","36","401","7","39","4","Acquisiton","7","39","2","36","33","0.6999999999999999556","0.2999999999999999889","CRCF","0","1","1","6","126","4","65","left","1","20","32.5","2"
"6.4.2","Reversal_Task","1","2021-09-24","16:58:24","fixation","Experiment_block_start","+","100","401","36","401","7","39","4","Acquisiton","7","39","2","36","33","0.6999999999999999556","0.2999999999999999889","CRCF","0","1","1","6","126","5","65","left","2","20","32.5","2.5"
"6.4.2","Reversal_Task","1","2021-09-24","16:58:24","choice","Experiment_block_start","watermelon.bmp","100","298","33","298","7","39","4","Acquisiton","7","39","1","33","36","0.6999999999999999556","0.2999999999999999889","CRCF","0","1","1","7","127","5","65","left","2","20","32.5","2.5"
"6.4.2","Reversal_Task","1","2021-09-24","16:58:24","fixation","Experiment_block_start","+","100","298","33","298","7","39","4","Acquisiton","7","39","1","33","36","0.6999999999999999556","0.2999999999999999889","CRCF","0","1","1","7","127","6","65","left","3","20","32.5","3"
"6.4.2","Reversal_Task","1","2021-09-24","16:58:24","choice","Experiment_block_start","watermelon.bmp","100","427","33","427","7","39","4","Acquisiton","7","39","1","33","36","0.6999999999999999556","0.2999999999999999889","CRCF","0","1","1","8","128","6","65","left","3","20","32.5","3"
"6.4.2","Reversal_Task","1","2021-09-24","16:58:24","fixation","Experiment_block_start","+","100","427","33","427","7","39","4","Acquisiton","7","39","1","33","36","0.6999999999999999556","0.2999999999999999889","CRCF","0","1","1","8","128","7","65","left","4","20","32.5","3.5"
"6.4.2","Reversal_Task","1","2021-09-24","16:58:24","choice","Experiment_block_start","watermelon.bmp","100","386","33","386","7","39","4","Acquisiton","7","39","1","33","36","0.6999999999999999556","0.2999999999999999889","CRCF","0","1","1","9","129","7","65","left","4","20","32.5","3.5"
"6.4.2","Reversal_Task","1","2021-09-24","16:58:24","fixation","Experiment_block_start","+","100","386","33","386","7","39","4","Acquisiton","7","39","1","33","36","0.6999999999999999556","0.2999999999999999889","CRCF","0","1","1","9","129","8","65","left","5","20","32.5","4"
"6.4.2","Reversal_Task","1","2021-09-24","16:58:24","choice","Experiment_block_start","watermelon.bmp","100","321","33","321","7","39","4","Acquisiton","7","39","1","33","36","0.6999999999999999556","0.2999999999999999889","CRIF","0","1","-1","10","130","8","65","left","5","20","32.5","4"
"6.4.2","Reversal_Task","1","2021-09-24","16:58:24","fixation","Experiment_block_start","+","100","321","33","321","7","39","4","Acquisiton","7","39","1","33","36","0.6999999999999999556","0.2999999999999999889","CRIF","0","1","-1","10","130","8","65","left","6","20","32.5","4"
"6.4.2","Reversal_Task","1","2021-09-24","16:58:24","choice","Experiment_block_start","watermelon.bmp","100","365","36","365","7","39","4","Acquisiton","7","39","2","36","33","0.6999999999999999556","0.2999999999999999889","CRCF","0","1","1","11","131","8","65","left","6","20","32.5","4"
"6.4.2","Reversal_Task","1","2021-09-24","16:58:24","fixation","Experiment_block_start","+","100","365","36","365","7","39","4","Acquisiton","7","39","2","36","33","0.6999999999999999556","0.2999999999999999889","CRCF","0","1","1","11","131","9","65","left","7","20","32.5","4.5"
"6.4.2","Reversal_Task","1","2021-09-24","16:58:24","choice","Experiment_block_start","watermelon.bmp","100","272","33","272","7","39","4","Acquisiton","7","39","1","33","36","0.6999999999999999556","0.2999999999999999889","CRIF","0","1","-1","12","132","9","65","left","7","20","32.5","4.5"
"6.4.2","Reversal_Task","1","2021-09-24","16:58:24","fixation","Experiment_block_start","+","100","272","33","272","7","39","4","Acquisiton","7","39","1","33","36","0.6999999999999999556","0.2999999999999999889","CRIF","0","1","-1","12","132","9","65","left","8","20","32.5","4.5"
"6.4.2","Reversal_Task","1","2021-09-24","16:58:24","choice","Experiment_block_start","watermelon.bmp","100","455","33","455","7","39","4","Acquisiton","7","39","1","33","36","0.6999999999999999556","0.2999999999999999889","CRCF","0","1","1","13","133","9","65","left","8","20","32.5","4.5"
"6.4.2","Reversal_Task","1","2021-09-24","16:58:24","fixation","Experiment_block_start","+","100","455","33","455","7","39","4","Acquisiton","7","39","1","33","36","0.6999999999999999556","0.2999999999999999889","CRCF","0","1","1","13","133","10","65","left","9","20","32.5","5"
"6.4.2","Reversal_Task","1","2021-09-24","16:58:24","choice","Experiment_block_start","watermelon.bmp","100","500","33","500","7","39","4","Acquisiton","7","39","1","33","36","0.6999999999999999556","0.2999999999999999889","CRIF","0","1","-1","14","134","10","65","left","9","20","32.5","5"
"6.4.2","Reversal_Task","1","2021-09-24","16:58:24","fixation","Experiment_block_start","+","100","500","33","500","7","39","4","Acquisiton","7","39","1","33","36","0.6999999999999999556","0.2999999999999999889","CRIF","0","1","-1","14","134","10","65","left","10","20","32.5","5"
"6.4.2","Reversal_Task","1","2021-09-24","16:58:24","choice","Experiment_block_start","watermelon.bmp","100","182","36","182","7","39","4","Acquisiton","7","39","2","36","33","0.6999999999999999556","0.2999999999999999889","CRCF","0","1","1","15","135","10","65","left","10","20","32.5","5"
"6.4.2","Reversal_Task","1","2021-09-24","16:58:24","fixation","Experiment_block_start","+","100","182","36","182","7","39","4","Acquisiton","7","39","2","36","33","0.6999999999999999556","0.2999999999999999889","CRCF","0","1","1","15","135","11","65","left","11","20","32.5","5.5"
"6.4.2","Reversal_Task","1","2021-09-24","16:58:24","choice","Experiment_block_start","watermelon.bmp","100","165","33","165","7","39","4","Acquisiton","7","39","1","33","36","0.6999999999999999556","0.2999999999999999889","CRIF","0","1","-1","16","136","11","65","left","11","20","32.5","5.5"
"6.4.2","Reversal_Task","1","2021-09-24","16:58:24","fixation","Experiment_block_start","+","100","165","33","165","7","39","4","Acquisiton","7","39","1","33","36","0.6999999999999999556","0.2999999999999999889","CRIF","0","1","-1","16","136","11","65","left","12","20","32.5","5.5"
"6.4.2","Reversal_Task","1","2021-09-24","16:58:24","choice","Experiment_block_start","watermelon.bmp","100","218","36","218","7","39","4","Acquisiton","7","39","1","33","36","0.6999999999999999556","0.2999999999999999889","IRIF","0","-1","1","17","137","11","65","left","12","20","32.5","5.5"
"6.4.2","Reversal_Task","1","2021-09-24","16:58:24","fixation","Experiment_block_start","+","100","218","36","218","7","39","4","Acquisiton","7","39","1","33","36","0.6999999999999999556","0.2999999999999999889","IRIF","0","-1","1","17","137","11","65","left","0","20","32.5","5.5"
"6.4.2","Reversal_Task","1","2021-09-24","16:58:24","choice","Experiment_block_start","watermelon.bmp","100","75","33","75","7","39","4","Acquisiton","7","39","2","36","33","0.6999999999999999556","0.2999999999999999889","IRIF","0","-1","1","18","138","11","65","left","0","20","32.5","5.5"
"6.4.2","Reversal_Task","1","2021-09-24","16:58:24","fixation","Experiment_block_start","+","100","75","33","75","7","39","4","Acquisiton","7","39","2","36","33","0.6999999999999999556","0.2999999999999999889","IRIF","0","-1","1","18","138","11","65","left","0","20","32.5","5.5"
"6.4.2","Reversal_Task","1","2021-09-24","16:58:24","choice","Experiment_block_start","watermelon.bmp","100","132","36","132","7","39","4","Acquisiton","7","39","2","36","33","0.6999999999999999556","0.2999999999999999889","CRCF","0","1","1","19","139","11","65","left","0","20","32.5","5.5"
"6.4.2","Reversal_Task","1","2021-09-24","16:58:24","fixation","Experiment_block_start","+","100","132","36","132","7","39","4","Acquisiton","7","39","2","36","33","0.6999999999999999556","0.2999999999999999889","CRCF","0","1","1","19","139","12","65","left","1","20","32.5","6"
"6.4.2","Reversal_Task","1","2021-09-24","16:58:24","choice","Experiment_block_start","watermelon.bmp","100","59","33","59","7","39","4","Acquisiton","7","39","1","33","36","0.6999999999999999556","0.2999999999999999889","CRIF","0","1","-1","20","140","12","65","left","1","20","32.5","6"
"6.4.2","Reversal_Task","1","2021-09-24","16:58:24","fixation","Experiment_block_start","+","100","59","33","59","7","39","4","Acquisiton","7","39","1","33","36","0.6999999999999999556","0.2999999999999999889","CRIF","0","1","-1","20","140","12","65","left","2","20","32.5","6"
"6.4.2","Reversal_Task","1","2021-09-24","16:58:24","choice","Experiment_block_start","umbrella.bmp","100","177","36","177","39","7","4","Reversal","39","7","1","33","36","0.6999999999999999556","0.2999999999999999889","IRIF","0","-1","1","21","141","12","65","left","2","20","32.5","6"
"6.4.2","Reversal_Task","1","2021-09-24","16:58:24","fixation","Experiment_block_start","+","100","177","36","177","39","7","4","Reversal","39","7","1","33","36","0.6999999999999999556","0.2999999999999999889","IRIF","0","-1","1","21","141","12","65","left","0","20","32.5","6"
"6.4.2","Reversal_Task","1","2021-09-24","16:58:24","choice","Experiment_block_start","umbrella.bmp","100","18","33","18","39","7","4","Reversal","39","7","1","33","36","0.6999999999999999556","0.2999999999999999889","CRIF","0","1","-1","22","142","12","65","left","0","20","32.5","6"
"6.4.2","Reversal_Task","1","2021-09-24","16:58:24","fixation","Experiment_block_start","+","100","18","33","18","39","7","4","Reversal","39","7","1","33","36","0.6999999999999999556","0.2999999999999999889","CRIF","0","1","-1","22","142","12","65","left","1","20","32.5","6"
"6.4.2","Reversal_Task","1","2021-09-24","16:58:24","choice","Experiment_block_start","umbrella.bmp","100","310","36","310","39","7","4","Reversal","39","7","1","33","36","0.6999999999999999556","0.2999999999999999889","IRIF","0","-1","1","23","143","12","65","left","1","20","32.5","6"
"6.4.2","Reversal_Task","1","2021-09-24","16:58:24","fixation","Experiment_block_start","+","100","310","36","310","39","7","4","Reversal","39","7","1","33","36","0.6999999999999999556","0.2999999999999999889","IRIF","0","-1","1","23","143","12","65","left","0","20","32.5","6"
"6.4.2","Reversal_Task","1","2021-09-24","16:58:24","choice","Experiment_block_start","umbrella.bmp","100","71","33","71","39","7","4","Reversal","39","7","1","33","36","0.6999999999999999556","0.2999999999999999889","CRCF","0","1","1","24","144","12","65","left","0","20","32.5","6"
"6.4.2","Reversal_Task","1","2021-09-24","16:58:24","fixation","Experiment_block_start","+","100","71","33","71","39","7","4","Reversal","39","7","1","33","36","0.6999999999999999556","0.2999999999999999889","CRCF","0","1","1","24","144","13","65","left","1","20","32.5","6.5"
"6.4.2","Reversal_Task","1","2021-09-24","16:58:24","choice","Experiment_block_start","umbrella.bmp","100","95","36","95","39","7","4","Reversal","39","7","1","33","36","0.6999999999999999556","0.2999999999999999889","IRIF","0","-1","1","25","145","13","65","left","1","20","32.5","6.5"
"6.4.2","Reversal_Task","1","2021-09-24","16:58:24","fixation","Experiment_block_start","+","100","95","36","95","39","7","4","Reversal","39","7","1","33","36","0.6999999999999999556","0.2999999999999999889","IRIF","0","-1","1","25","145","13","65","left","0","20","32.5","6.5"
"6.4.2","Reversal_Task","1","2021-09-24","16:58:24","choice","Experiment_block_start","umbrella.bmp","100","101","33","101","39","7","4","Reversal","39","7","1","33","36","0.6999999999999999556","0.2999999999999999889","CRCF","0","1","1","26","146","13","65","left","0","20","32.5","6.5"
"6.4.2","Reversal_Task","1","2021-09-24","16:58:24","fixation","Experiment_block_start","+","100","101","33","101","39","7","4","Reversal","39","7","1","33","36","0.6999999999999999556","0.2999999999999999889","CRCF","0","1","1","26","146","14","65","left","1","20","32.5","7"
"6.4.2","Reversal_Task","1","2021-09-24","16:58:24","choice","Experiment_block_start","umbrella.bmp","100","100","36","100","39","7","4","Reversal","39","7","2","36","33","0.6999999999999999556","0.2999999999999999889","CRCF","0","1","1","27","147","14","65","left","1","20","32.5","7"
"6.4.2","Reversal_Task","1","2021-09-24","16:58:24","fixation","Experiment_block_start","+","100","100","36","100","39","7","4","Reversal","39","7","2","36","33","0.6999999999999999556","0.2999999999999999889","CRCF","0","1","1","27","147","15","65","left","2","20","32.5","7.5"
"6.4.2","Reversal_Task","1","2021-09-24","16:58:24","choice","Experiment_block_start","umbrella.bmp","100","224","33","224","39","7","4","Reversal","39","7","2","36","33","0.6999999999999999556","0.2999999999999999889","IRIF","0","-1","1","28","148","15","65","left","2","20","32.5","7.5"
"6.4.2","Reversal_Task","1","2021-09-24","16:58:24","fixation","Experiment_block_start","+","100","224","33","224","39","7","4","Reversal","39","7","2","36","33","0.6999999999999999556","0.2999999999999999889","IRIF","0","-1","1","28","148","15","65","left","0","20","32.5","7.5"
"6.4.2","Reversal_Task","1","2021-09-24","16:58:24","choice","Experiment_block_start","umbrella.bmp","100","128","36","128","39","7","4","Reversal","39","7","1","33","36","0.6999999999999999556","0.2999999999999999889","IRIF","0","-1","1","29","149","15","65","left","0","20","32.5","7.5"
"6.4.2","Reversal_Task","1","2021-09-24","16:58:24","fixation","Experiment_block_start","+","100","128","36","128","39","7","4","Reversal","39","7","1","33","36","0.6999999999999999556","0.2999999999999999889","IRIF","0","-1","1","29","149","15","65","left","0","20","32.5","7.5"
"6.4.2","Reversal_Task","1","2021-09-24","16:58:24","choice","Experiment_block_start","umbrella.bmp","100","149","33","149","39","7","4","Reversal","39","7","1","33","36","0.6999999999999999556","0.2999999999999999889","CRIF","0","1","-1","30","150","15","65","left","0","20","32.5","7.5"
"6.4.2","Reversal_Task","1","2021-09-24","16:58:24","fixation","Experiment_block_start","+","100","149","33","149","39","7","4","Reversal","39","7","1","33","36","0.6999999999999999556","0.2999999999999999889","CRIF","0","1","-1","30","150","15","65","left","1","20","32.5","7.5"
"6.4.2","Reversal_Task","1","2021-09-24","16:58:24","choice","Experiment_block_start","umbrella.bmp","100","556","36","556","39","7","4","Reversal","39","7","2","36","33","0.6999999999999999556","0.2999999999999999889","CRCF","0","1","1","31","151","15","65","left","1","20","32.5","7.5"
"6.4.2","Reversal_Task","1","2021-09-24","16:58:24","fixation","Experiment_block_start","+","100","556","36","556","39","7","4","Reversal","39","7","2","36","33","0.6999999999999999556","0.2999999999999999889","CRCF","0","1","1","31","151","16","65","left","2","20","32.5","8"
"6.4.2","Reversal_Task","1","2021-09-24","16:58:24","choice","Experiment_block_start","umbrella.bmp","100","65","33","65","39","7","4","Reversal","39","7","2","36","33","0.6999999999999999556","0.2999999999999999889","IRCF","0","-1","-1","32","152","16","65","left","2","20","32.5","8"
"6.4.2","Reversal_Task","1","2021-09-24","16:58:24","fixation","Experiment_block_start","+","100","65","33","65","39","7","4","Reversal","39","7","2","36","33","0.6999999999999999556","0.2999999999999999889","IRCF","0","-1","-1","32","152","17","65","left","0","20","32.5","8.5"
"6.4.2","Reversal_Task","1","2021-09-24","16:58:24","choice","Experiment_block_start","umbrella.bmp","100","137","33","137","39","7","4","Reversal","39","7","1","33","36","0.6999999999999999556","0.2999999999999999889","CRIF","0","1","-1","33","153","17","65","left","0","20","32.5","8.5"
"6.4.2","Reversal_Task","1","2021-09-24","16:58:24","fixation","Experiment_block_start","+","100","137","33","137","39","7","4","Reversal","39","7","1","33","36","0.6999999999999999556","0.2999999999999999889","CRIF","0","1","-1","33","153","17","65","left","1","20","32.5","8.5"
"6.4.2","Reversal_Task","1","2021-09-24","16:58:24","choice","Experiment_block_start","umbrella.bmp","100","389","33","389","39","7","4","Reversal","39","7","1","33","36","0.6999999999999999556","0.2999999999999999889","CRCF","0","1","1","34","154","17","65","left","1","20","32.5","8.5"
"6.4.2","Reversal_Task","1","2021-09-24","16:58:24","fixation","Experiment_block_start","+","100","389","33","389","39","7","4","Reversal","39","7","1","33","36","0.6999999999999999556","0.2999999999999999889","CRCF","0","1","1","34","154","18","65","left","2","20","32.5","9"
"6.4.2","Reversal_Task","1","2021-09-24","16:58:24","choice","Experiment_block_start","umbrella.bmp","100","99","33","99","39","7","4","Reversal","39","7","2","36","33","0.6999999999999999556","0.2999999999999999889","IRIF","0","-1","1","35","155","18","65","left","2","20","32.5","9"
"6.4.2","Reversal_Task","1","2021-09-24","16:58:24","fixation","Experiment_block_start","+","100","99","33","99","39","7","4","Reversal","39","7","2","36","33","0.6999999999999999556","0.2999999999999999889","IRIF","0","-1","1","35","155","18","65","left","0","20","32.5","9"
"6.4.2","Reversal_Task","1","2021-09-24","16:58:24","choice","Experiment_block_start","umbrella.bmp","100","118","33","118","39","7","4","Reversal","39","7","2","36","33","0.6999999999999999556","0.2999999999999999889","IRIF","0","-1","1","36","156","18","65","left","0","20","32.5","9"
"6.4.2","Reversal_Task","1","2021-09-24","16:58:24","fixation","Experiment_block_start","+","100","118","33","118","39","7","4","Reversal","39","7","2","36","33","0.6999999999999999556","0.2999999999999999889","IRIF","0","-1","1","36","156","18","65","left","0","20","32.5","9"
"6.4.2","Reversal_Task","1","2021-09-24","16:58:24","choice","Experiment_block_start","umbrella.bmp","100","25","33","25","39","7","4","Reversal","39","7","2","36","33","0.6999999999999999556","0.2999999999999999889","IRIF","0","-1","1","37","157","18","65","left","0","20","32.5","9"
"6.4.2","Reversal_Task","1","2021-09-24","16:58:24","fixation","Experiment_block_start","+","100","25","33","25","39","7","4","Reversal","39","7","2","36","33","0.6999999999999999556","0.2999999999999999889","IRIF","0","-1","1","37","157","18","65","left","0","20","32.5","9"
"6.4.2","Reversal_Task","1","2021-09-24","16:58:24","choice","Experiment_block_start","umbrella.bmp","100","496","33","496","39","7","4","Reversal","39","7","2","36","33","0.6999999999999999556","0.2999999999999999889","IRIF","0","-1","1","38","158","18","65","left","0","20","32.5","9"
"6.4.2","Reversal_Task","1","2021-09-24","16:58:24","fixation","Experiment_block_start","+","100","496","33","496","39","7","4","Reversal","39","7","2","36","33","0.6999999999999999556","0.2999999999999999889","IRIF","0","-1","1","38","158","18","65","left","0","20","32.5","9"
"6.4.2","Reversal_Task","1","2021-09-24","16:58:24","choice","Experiment_block_start","umbrella.bmp","100","180","36","180","39","7","4","Reversal","39","7","2","36","33","0.6999999999999999556","0.2999999999999999889","CRIF","0","1","-1","39","159","18","65","left","0","20","32.5","9"
"6.4.2","Reversal_Task","1","2021-09-24","16:58:24","fixation","Experiment_block_start","+","100","180","36","180","39","7","4","Reversal","39","7","2","36","33","0.6999999999999999556","0.2999999999999999889","CRIF","0","1","-1","39","159","18","65","left","1","20","32.5","9"
"6.4.2","Reversal_Task","1","2021-09-24","16:58:24","choice","Experiment_block_start","umbrella.bmp","100","278","36","278","39","7","4","Reversal","39","7","1","33","36","0.6999999999999999556","0.2999999999999999889","IRIF","0","-1","1","40","160","18","65","left","1","20","32.5","9"
"6.4.2","Reversal_Task","1","2021-09-24","16:58:24","fixation","Experiment_block_start","+","100","278","36","278","39","7","5","Reversal","39","7","1","33","36","0.6999999999999999556","0.2999999999999999889","IRIF","0","-1","1","40","160","18","65","left","0","20","32.5","9"
"6.4.2","Reversal_Task","1","2021-09-24","16:58:24","reset_trial","Experiment_block_start","Press SPACE to continue","100","278","36","278","39","7","5","Reversal","39","7","1","33","36","0.6999999999999999556","0.2999999999999999889","IRIF","0","-1","1","40","160","0","83","left","0","17","41.5","0"
"6.4.2","Reversal_Task","1","2021-09-24","16:58:24","choice","Experiment_block_start","anchor.bmp","100","448","33","448","19","14","5","Acquisiton","19","14","1","33","36","0.6999999999999999556","0.2999999999999999889","CRCF","0","1","1","1","161","0","83","left","0","17","41.5","0"
"6.4.2","Reversal_Task","1","2021-09-24","16:58:24","fixation","Experiment_block_start","+","100","448","33","448","19","14","5","Acquisiton","19","14","1","33","36","0.6999999999999999556","0.2999999999999999889","CRCF","0","1","1","1","161","1","83","left","1","17","41.5","0.5"
"6.4.2","Reversal_Task","1","2021-09-24","16:58:24","choice","Experiment_block_start","anchor.bmp","100","308","33","308","19","14","5","Acquisiton","19","14","2","36","33","0.6999999999999999556","0.2999999999999999889","IRIF","0","-1","1","2","162","1","83","left","1","17","41.5","0.5"
"6.4.2","Reversal_Task","1","2021-09-24","16:58:24","fixation","Experiment_block_start","+","100","308","33","308","19","14","5","Acquisiton","19","14","2","36","33","0.6999999999999999556","0.2999999999999999889","IRIF","0","-1","1","2","162","1","83","left","0","17","41.5","0.5"
"6.4.2","Reversal_Task","1","2021-09-24","16:58:24","choice","Experiment_block_start","anchor.bmp","100","441","33","441","19","14","5","Acquisiton","19","14","1","33","36","0.6999999999999999556","0.2999999999999999889","CRIF","0","1","-1","3","163","1","83","left","0","17","41.5","0.5"
"6.4.2","Reversal_Task","1","2021-09-24","16:58:24","fixation","Experiment_block_start","+","100","441","33","441","19","14","5","Acquisiton","19","14","1","33","36","0.6999999999999999556","0.2999999999999999889","CRIF","0","1","-1","3","163","1","83","left","1","17","41.5","0.5"
"6.4.2","Reversal_Task","1","2021-09-24","16:58:24","choice","Experiment_block_start","anchor.bmp","100","213","36","213","19","14","5","Acquisiton","19","14","2","36","33","0.6999999999999999556","0.2999999999999999889","CRCF","0","1","1","4","164","1","83","left","1","17","41.5","0.5"
"6.4.2","Reversal_Task","1","2021-09-24","16:58:24","fixation","Experiment_block_start","+","100","213","36","213","19","14","5","Acquisiton","19","14","2","36","33","0.6999999999999999556","0.2999999999999999889","CRCF","0","1","1","4","164","2","83","left","2","17","41.5","1"
"6.4.2","Reversal_Task","1","2021-09-24","16:58:24","choice","Experiment_block_start","anchor.bmp","100","196","33","196","19","14","5","Acquisiton","19","14","1","33","36","0.6999999999999999556","0.2999999999999999889","CRCF","0","1","1","5","165","2","83","left","2","17","41.5","1"
"6.4.2","Reversal_Task","1","2021-09-24","16:58:24","fixation","Experiment_block_start","+","100","196","33","196","19","14","5","Acquisiton","19","14","1","33","36","0.6999999999999999556","0.2999999999999999889","CRCF","0","1","1","5","165","3","83","left","3","17","41.5","1.5"
"6.4.2","Reversal_Task","1","2021-09-24","16:58:24","choice","Experiment_block_start","anchor.bmp","100","388","33","388","19","14","5","Acquisiton","19","14","1","33","36","0.6999999999999999556","0.2999999999999999889","CRIF","0","1","-1","6","166","3","83","left","3","17","41.5","1.5"
"6.4.2","Reversal_Task","1","2021-09-24","16:58:24","fixation","Experiment_block_start","+","100","388","33","388","19","14","5","Acquisiton","19","14","1","33","36","0.6999999999999999556","0.2999999999999999889","CRIF","0","1","-1","6","166","3","83","left","4","17","41.5","1.5"
"6.4.2","Reversal_Task","1","2021-09-24","16:58:24","choice","Experiment_block_start","anchor.bmp","100","390","36","390","19","14","5","Acquisiton","19","14","2","36","33","0.6999999999999999556","0.2999999999999999889","CRIF","0","1","-1","7","167","3","83","left","4","17","41.5","1.5"
"6.4.2","Reversal_Task","1","2021-09-24","16:58:24","fixation","Experiment_block_start","+","100","390","36","390","19","14","5","Acquisiton","19","14","2","36","33","0.6999999999999999556","0.2999999999999999889","CRIF","0","1","-1","7","167","3","83","left","5","17","41.5","1.5"
"6.4.2","Reversal_Task","1","2021-09-24","16:58:24","choice","Experiment_block_start","anchor.bmp","100","208","33","208","19","14","5","Acquisiton","19","14","2","36","33","0.6999999999999999556","0.2999999999999999889","IRCF","0","-1","-1","8","168","3","83","left","5","17","41.5","1.5"
"6.4.2","Reversal_Task","1","2021-09-24","16:58:24","fixation","Experiment_block_start","+","100","208","33","208","19","14","5","Acquisiton","19","14","2","36","33","0.6999999999999999556","0.2999999999999999889","IRCF","0","-1","-1","8","168","4","83","left","0","17","41.5","2"
"6.4.2","Reversal_Task","1","2021-09-24","16:58:24","choice","Experiment_block_start","anchor.bmp","100","549","36","549","19","14","5","Acquisiton","19","14","1","33","36","0.6999999999999999556","0.2999999999999999889","IRIF","0","-1","1","9","169","4","83","left","0","17","41.5","2"
"6.4.2","Reversal_Task","1","2021-09-24","16:58:24","fixation","Experiment_block_start","+","100","549","36","549","19","14","5","Acquisiton","19","14","1","33","36","0.6999999999999999556","0.2999999999999999889","IRIF","0","-1","1","9","169","4","83","left","0","17","41.5","2"
"6.4.2","Reversal_Task","1","2021-09-24","16:58:24","choice","Experiment_block_start","anchor.bmp","100","331","33","331","19","14","5","Acquisiton","19","14","2","36","33","0.6999999999999999556","0.2999999999999999889","IRCF","0","-1","-1","10","170","4","83","left","0","17","41.5","2"
"6.4.2","Reversal_Task","1","2021-09-24","16:58:24","fixation","Experiment_block_start","+","100","331","33","331","19","14","5","Acquisiton","19","14","2","36","33","0.6999999999999999556","0.2999999999999999889","IRCF","0","-1","-1","10","170","5","83","left","0","17","41.5","2.5"
"6.4.2","Reversal_Task","1","2021-09-24","16:58:24","choice","Experiment_block_start","anchor.bmp","100","222","36","222","19","14","5","Acquisiton","19","14","2","36","33","0.6999999999999999556","0.2999999999999999889","CRIF","0","1","-1","11","171","5","83","left","0","17","41.5","2.5"
"6.4.2","Reversal_Task","1","2021-09-24","16:58:24","fixation","Experiment_block_start","+","100","222","36","222","19","14","5","Acquisiton","19","14","2","36","33","0.6999999999999999556","0.2999999999999999889","CRIF","0","1","-1","11","171","5","83","left","1","17","41.5","2.5"
"6.4.2","Reversal_Task","1","2021-09-24","16:58:24","choice","Experiment_block_start","anchor.bmp","100","134","33","134","19","14","5","Acquisiton","19","14","2","36","33","0.6999999999999999556","0.2999999999999999889","IRIF","0","-1","1","12","172","5","83","left","1","17","41.5","2.5"
"6.4.2","Reversal_Task","1","2021-09-24","16:58:24","fixation","Experiment_block_start","+","100","134","33","134","19","14","5","Acquisiton","19","14","2","36","33","0.6999999999999999556","0.2999999999999999889","IRIF","0","-1","1","12","172","5","83","left","0","17","41.5","2.5"
"6.4.2","Reversal_Task","1","2021-09-24","16:58:24","choice","Experiment_block_start","anchor.bmp","100","265","36","265","19","14","5","Acquisiton","19","14","2","36","33","0.6999999999999999556","0.2999999999999999889","CRCF","0","1","1","13","173","5","83","left","0","17","41.5","2.5"
"6.4.2","Reversal_Task","1","2021-09-24","16:58:24","fixation","Experiment_block_start","+","100","265","36","265","19","14","5","Acquisiton","19","14","2","36","33","0.6999999999999999556","0.2999999999999999889","CRCF","0","1","1","13","173","6","83","left","1","17","41.5","3"
"6.4.2","Reversal_Task","1","2021-09-24","16:58:24","choice","Experiment_block_start","anchor.bmp","100","209","33","209","19","14","5","Acquisiton","19","14","1","33","36","0.6999999999999999556","0.2999999999999999889","CRCF","0","1","1","14","174","6","83","left","1","17","41.5","3"
"6.4.2","Reversal_Task","1","2021-09-24","16:58:24","fixation","Experiment_block_start","+","100","209","33","209","19","14","5","Acquisiton","19","14","1","33","36","0.6999999999999999556","0.2999999999999999889","CRCF","0","1","1","14","174","7","83","left","2","17","41.5","3.5"
