"build","experimentName","subject","date","time","trialcode","blockcode","stimulusitem1","trial.presentation_left.percentcorrect","trial.presentation_right.percentcorrect","trial.presentation_left.response","trial.presentation_left.latency","trial.presentation_right.response","trial.presentation_right.latency","picture.Left.currentvalue","picture.Right.currentvalue","block_number","task_phase","LeftStimSelected","RightStimSelected","percentTrialsCorrectFeedback_left","percentTrialsCorrectFeedback_right","responseAndFeedbackCategory","isThisTrialPractice","isResponseCorrect","isFeedbackAccurate","trial_number","total_trialnum","numbercorrectfeedback","totalcorrect","numberoftimesleft","numberoftimesright","rightleftcorrect","consecutivecorrect","reversalnumber","totalearnings","centsearned"
"6.4.1","Reversal_Task","455","2021-08-30","17:28:43","presentation_left","Experiment_block_leftstart","brush.bmp","100","100","33","789","36","312","11","39","1","Acquisiton","11","39","0.8000000000000000444","0.2000000000000000111","CRCF","0","1","1","1","7","0","","1","0","left","4","25","1","0"
"6.4.1","Reversal_Task","455","2021-08-30","17:28:43","fixation","Experiment_block_leftstart","+","100","100","33","789","36","312","11","39","1","Acquisiton","11","39","0.8000000000000000444","0.2000000000000000111","CRCF","0","1","1","1","7","1","","1","0","left","5","25","1","0.5"
"6.4.1","Reversal_Task","455","2021-08-30","17:28:43","presentation_left","Experiment_block_leftstart","brush.bmp","100","100","33","321","36","312","11","39","1","Acquisiton","11","39","0.8000000000000000444","0.2000000000000000111","CRCF","0","1","1","2","8","1","","2","0","left","5","25","1","0.5"
"6.4.1","Reversal_Task","455","2021-08-30","17:28:43","fixation","Experiment_block_leftstart","+","100","100","33","321","36","312","11","39","1","Acquisiton","11","39","0.8000000000000000444","0.2000000000000000111","CRCF","0","1","1","2","8","2","","2","0","left","6","25","1","1"
"6.4.1","Reversal_Task","455","2021-08-30","17:28:43","presentation_left","Experiment_block_leftstart","brush.bmp","100","100","33","268","36","312","11","39","1","Acquisiton","11","39","0.8000000000000000444","0.2000000000000000111","CRCF","0","1","1","3","9","2","","3","0","left","6","25","1","1"
"6.4.1","Reversal_Task","455","2021-08-30","17:28:43","fixation","Experiment_block_leftstart","+","100","100","33","268","36","312","11","39","1","Acquisiton","11","39","0.8000000000000000444","0.2000000000000000111","CRCF","0","1","1","3","9","3","","3","0","left","7","25","1","1.5"
"6.4.1","Reversal_Task","455","2021-08-30","17:28:43","presentation_left","Experiment_block_leftstart","brush.bmp","100","100","33","159","36","312","11","39","1","Acquisiton","11","39","0.8000000000000000444","0.2000000000000000111","CRIF","0","1","-1","4","10","3","","4","0","left","7","25","1","1.5"
"6.4.1","Reversal_Task","455","2021-08-30","17:28:43","fixation","Experiment_block_leftstart","+","100","100","33","159","36","312","11","39","1","Acquisiton","11","39","0.8000000000000000444","0.2000000000000000111","CRIF","0","1","-1","4","10","3","","4","0","left","8","25","1","1.5"
"6.4.1","Reversal_Task","455","2021-08-30","17:28:43","presentation_left","Experiment_block_leftstart","brush.bmp","100","100","33","171","36","312","11","39","1","Acquisiton","11","39","0.8000000000000000444","0.2000000000000000111","CRCF","0","1","1","5","11","3","","5","0","left","8","25","1","1.5"
"6.4.1","Reversal_Task","455","2021-08-30","17:28:43","fixation","Experiment_block_leftstart","+","100","100","33","171","36","312","11","39","1","Acquisiton","11","39","0.8000000000000000444","0.2000000000000000111","CRCF","0","1","1","5","11","4","","5","0","left","9","25","1","2"
"6.4.1","Reversal_Task","455","2021-08-30","17:28:43","presentation_left","Experiment_block_leftstart","brush.bmp","100","100","33","179","36","312","11","39","1","Acquisiton","11","39","0.8000000000000000444","0.2000000000000000111","CRCF","0","1","1","6","12","4","","6","0","left","9","25","1","2"
"6.4.1","Reversal_Task","455","2021-08-30","17:28:43","fixation","Experiment_block_leftstart","+","100","100","33","179","36","312","11","39","1","Acquisiton","11","39","0.8000000000000000444","0.2000000000000000111","CRCF","0","1","1","6","12","5","","6","0","left","10","25","1","2.5"
"6.4.1","Reversal_Task","455","2021-08-30","17:28:43","presentation_left","Experiment_block_leftstart","brush.bmp","100","100","33","171","36","312","11","39","1","Acquisiton","11","39","0.8000000000000000444","0.2000000000000000111","CRCF","0","1","1","7","13","5","","7","0","left","10","25","1","2.5"
"6.4.1","Reversal_Task","455","2021-08-30","17:28:43","fixation","Experiment_block_leftstart","+","100","100","33","171","36","312","11","39","1","Acquisiton","11","39","0.8000000000000000444","0.2000000000000000111","CRCF","0","1","1","7","13","6","","7","0","left","11","25","1","3"
"6.4.1","Reversal_Task","455","2021-08-30","17:28:43","presentation_left","Experiment_block_leftstart","brush.bmp","100","100","33","239","36","312","11","39","1","Acquisiton","11","39","0.8000000000000000444","0.2000000000000000111","CRCF","0","1","1","8","14","6","","8","0","left","11","25","1","3"
"6.4.1","Reversal_Task","455","2021-08-30","17:28:43","fixation","Experiment_block_leftstart","+","100","100","33","239","36","312","11","39","1","Acquisiton","11","39","0.8000000000000000444","0.2000000000000000111","CRCF","0","1","1","8","14","7","","8","0","left","12","25","1","3.5"
"6.4.1","Reversal_Task","455","2021-08-30","17:28:43","presentation_left","Experiment_block_leftstart","brush.bmp","100","100","33","135","36","312","11","39","1","Acquisiton","11","39","0.8000000000000000444","0.2000000000000000111","CRIF","0","1","-1","9","15","7","","9","0","left","12","25","1","3.5"
"6.4.1","Reversal_Task","455","2021-08-30","17:28:43","fixation","Experiment_block_leftstart","+","100","100","33","135","36","312","11","39","1","Acquisiton","11","39","0.8000000000000000444","0.2000000000000000111","CRIF","0","1","-1","9","15","7","","9","0","left","13","25","1","3.5"
"6.4.1","Reversal_Task","455","2021-08-30","17:28:43","presentation_left","Experiment_block_leftstart","brush.bmp","100","100","33","121","36","312","11","39","1","Acquisiton","11","39","0.8000000000000000444","0.2000000000000000111","CRCF","0","1","1","10","16","7","","10","0","left","13","25","1","3.5"
"6.4.1","Reversal_Task","455","2021-08-30","17:28:43","fixation","Experiment_block_leftstart","+","100","100","33","121","36","312","11","39","1","Acquisiton","11","39","0.8000000000000000444","0.2000000000000000111","CRCF","0","1","1","10","16","8","","10","0","left","14","25","1","4"
"6.4.1","Reversal_Task","455","2021-08-30","17:28:43","presentation_left","Experiment_block_leftstart","brush.bmp","100","100","33","146","36","312","11","39","1","Acquisiton","11","39","0.8000000000000000444","0.2000000000000000111","CRCF","0","1","1","11","17","8","","11","0","left","14","25","1","4"
"6.4.1","Reversal_Task","455","2021-08-30","17:28:43","fixation","Experiment_block_leftstart","+","100","100","33","146","36","312","11","39","1","Acquisiton","11","39","0.8000000000000000444","0.2000000000000000111","CRCF","0","1","1","11","17","9","","11","0","left","15","25","1","4.5"
"6.4.1","Reversal_Task","455","2021-08-30","17:28:43","presentation_left","Experiment_block_leftstart","brush.bmp","100","100","33","158","36","312","11","39","1","Acquisiton","11","39","0.8000000000000000444","0.2000000000000000111","CRCF","0","1","1","12","18","9","","12","0","left","15","25","1","4.5"
"6.4.1","Reversal_Task","455","2021-08-30","17:28:43","fixation","Experiment_block_leftstart","+","100","100","33","158","36","312","11","39","1","Acquisiton","11","39","0.8000000000000000444","0.2000000000000000111","CRCF","0","1","1","12","18","10","","12","0","left","16","25","1","5"
"6.4.1","Reversal_Task","455","2021-08-30","17:28:43","presentation_left","Experiment_block_leftstart","brush.bmp","100","100","33","184","36","312","11","39","1","Acquisiton","11","39","0.8000000000000000444","0.2000000000000000111","CRCF","0","1","1","13","19","10","","13","0","left","16","25","1","5"
"6.4.1","Reversal_Task","455","2021-08-30","17:28:43","fixation","Experiment_block_leftstart","+","100","100","33","184","36","312","11","39","1","Acquisiton","11","39","0.8000000000000000444","0.2000000000000000111","CRCF","0","1","1","13","19","11","","13","0","left","17","25","1","5.5"
"6.4.1","Reversal_Task","455","2021-08-30","17:28:43","presentation_left","Experiment_block_leftstart","brush.bmp","100","100","33","127","36","312","11","39","1","Acquisiton","11","39","0.8000000000000000444","0.2000000000000000111","CRCF","0","1","1","14","20","11","","14","0","left","17","25","1","5.5"
"6.4.1","Reversal_Task","455","2021-08-30","17:28:43","fixation","Experiment_block_leftstart","+","100","100","33","127","36","312","11","39","1","Acquisiton","11","39","0.8000000000000000444","0.2000000000000000111","CRCF","0","1","1","14","20","12","","14","0","left","18","25","1","6"
"6.4.1","Reversal_Task","455","2021-08-30","17:28:43","presentation_left","Experiment_block_leftstart","brush.bmp","100","100","33","148","36","312","11","39","1","Acquisiton","11","39","0.8000000000000000444","0.2000000000000000111","CRCF","0","1","1","15","21","12","","15","0","left","18","25","1","6"
"6.4.1","Reversal_Task","455","2021-08-30","17:28:43","fixation","Experiment_block_leftstart","+","100","100","33","148","36","312","11","39","1","Acquisiton","11","39","0.8000000000000000444","0.2000000000000000111","CRCF","0","1","1","15","21","13","","15","0","left","19","25","1","6.5"
"6.4.1","Reversal_Task","455","2021-08-30","17:28:43","presentation_left","Experiment_block_leftstart","brush.bmp","100","100","33","132","36","312","11","39","1","Acquisiton","11","39","0.8000000000000000444","0.2000000000000000111","CRCF","0","1","1","16","22","13","","16","0","left","19","25","1","6.5"
"6.4.1","Reversal_Task","455","2021-08-30","17:28:43","fixation","Experiment_block_leftstart","+","100","100","33","132","36","312","11","39","1","Acquisiton","11","39","0.8000000000000000444","0.2000000000000000111","CRCF","0","1","1","16","22","14","","16","0","left","20","25","1","7"
"6.4.1","Reversal_Task","455","2021-08-30","17:28:43","presentation_left","Experiment_block_leftstart","brush.bmp","100","100","33","162","36","312","11","39","1","Acquisiton","11","39","0.8000000000000000444","0.2000000000000000111","CRCF","0","1","1","17","23","14","","17","0","left","20","25","1","7"
"6.4.1","Reversal_Task","455","2021-08-30","17:28:43","fixation","Experiment_block_leftstart","+","100","100","33","162","36","312","11","39","1","Acquisiton","11","39","0.8000000000000000444","0.2000000000000000111","CRCF","0","1","1","17","23","15","","17","0","left","21","25","1","7.5"
"6.4.1","Reversal_Task","455","2021-08-30","17:28:43","presentation_left","Experiment_block_leftstart","brush.bmp","100","100","33","183","36","312","11","39","1","Acquisiton","11","39","0.8000000000000000444","0.2000000000000000111","CRCF","0","1","1","18","24","15","","18","0","left","21","25","1","7.5"
"6.4.1","Reversal_Task","455","2021-08-30","17:28:43","fixation","Experiment_block_leftstart","+","100","100","33","183","36","312","11","39","1","Acquisiton","11","39","0.8000000000000000444","0.2000000000000000111","CRCF","0","1","1","18","24","16","","18","0","left","22","25","1","8"
"6.4.1","Reversal_Task","455","2021-08-30","17:28:43","presentation_left","Experiment_block_leftstart","brush.bmp","100","100","33","84","36","312","11","39","1","Acquisiton","11","39","0.8000000000000000444","0.2000000000000000111","CRCF","0","1","1","19","25","16","","19","0","left","22","25","1","8"
"6.4.1","Reversal_Task","455","2021-08-30","17:28:43","fixation","Experiment_block_leftstart","+","100","100","33","84","36","312","11","39","1","Acquisiton","11","39","0.8000000000000000444","0.2000000000000000111","CRCF","0","1","1","19","25","17","","19","0","left","23","25","1","8.5"
"6.4.1","Reversal_Task","455","2021-08-30","17:28:43","presentation_left","Experiment_block_leftstart","brush.bmp","100","100","33","147","36","312","11","39","1","Acquisiton","11","39","0.8000000000000000444","0.2000000000000000111","CRCF","0","1","1","20","26","17","","20","0","left","23","25","1","8.5"
"6.4.1","Reversal_Task","455","2021-08-30","17:28:43","fixation","Experiment_block_leftstart","+","100","100","33","147","36","312","11","39","1","Acquisiton","11","39","0.8000000000000000444","0.2000000000000000111","CRCF","0","1","1","20","26","18","","20","0","left","24","25","1","9"
"6.4.1","Reversal_Task","455","2021-08-30","17:28:43","presentation_left","Experiment_block_leftstart","brush.bmp","100","100","33","157","36","312","11","39","1","Acquisiton","11","39","0.8000000000000000444","0.2000000000000000111","CRCF","0","1","1","21","27","18","","21","0","left","24","25","1","9"
"6.4.1","Reversal_Task","455","2021-08-30","17:28:43","fixation","Experiment_block_leftstart","+","100","100","33","157","36","312","11","39","1","Acquisiton","11","39","0.8000000000000000444","0.2000000000000000111","CRCF","0","1","1","21","27","19","","21","0","left","25","25","1","9.5"
"6.4.1","Reversal_Task","455","2021-08-30","17:28:43","presentation_left","Experiment_block_leftstart","brush.bmp","100","100","33","127","36","312","11","39","1","Acquisiton","11","39","0.8000000000000000444","0.2000000000000000111","CRCF","0","1","1","22","28","19","","22","0","left","25","25","1","9.5"
"6.4.1","Reversal_Task","455","2021-08-30","17:28:43","fixation","Experiment_block_leftstart","+","100","100","33","127","36","312","11","39","1","Acquisiton","11","39","0.8000000000000000444","0.2000000000000000111","CRCF","0","1","1","22","28","20","","22","0","left","26","25","1","10"
"6.4.1","Reversal_Task","455","2021-08-30","17:28:43","presentation_left","Experiment_block_leftstart","brush.bmp","100","100","33","121","36","312","11","39","1","Acquisiton","11","39","0.8000000000000000444","0.2000000000000000111","CRIF","0","1","-1","23","29","20","","23","0","left","26","25","1","10"
"6.4.1","Reversal_Task","455","2021-08-30","17:28:43","fixation","Experiment_block_leftstart","+","100","100","33","121","36","312","11","39","1","Acquisiton","11","39","0.8000000000000000444","0.2000000000000000111","CRIF","0","1","-1","23","29","20","","23","0","left","27","25","1","10"
"6.4.1","Reversal_Task","455","2021-08-30","17:28:43","presentation_left","Experiment_block_leftstart","brush.bmp","100","100","33","142","36","312","11","39","1","Acquisiton","11","39","0.8000000000000000444","0.2000000000000000111","CRCF","0","1","1","24","30","20","","24","0","left","27","25","1","10"
"6.4.1","Reversal_Task","455","2021-08-30","17:28:43","fixation","Experiment_block_leftstart","+","100","100","33","142","36","312","11","39","1","Acquisiton","11","39","0.8000000000000000444","0.2000000000000000111","CRCF","0","1","1","24","30","21","","24","0","left","28","25","1","10.5"
"6.4.1","Reversal_Task","455","2021-08-30","17:28:43","presentation_left","Experiment_block_leftstart","brush.bmp","100","100","33","130","36","312","11","39","1","Acquisiton","11","39","0.8000000000000000444","0.2000000000000000111","CRCF","0","1","1","25","31","21","","25","0","left","28","25","1","10.5"
"6.4.1","Reversal_Task","455","2021-08-30","17:28:43","fixation","Experiment_block_leftstart","+","100","100","33","130","36","312","11","39","1","Acquisiton","11","39","0.8000000000000000444","0.2000000000000000111","CRCF","0","1","1","25","31","22","","25","0","left","29","25","1","11"
"6.4.1","Reversal_Task","455","2021-08-30","17:28:43","presentation_right","Experiment_block_leftstart","brush.bmp","100","0","33","130","33","107","11","39","1","Reversal","11","39","0.2000000000000000111","0.8000000000000000444","IRIF","0","-1","1","26","32","22","","26","0","right","29","25","1","11"
"6.4.1","Reversal_Task","455","2021-08-30","17:28:43","fixation","Experiment_block_leftstart","+","100","0","33","130","33","107","11","39","1","Reversal","11","39","0.2000000000000000111","0.8000000000000000444","IRIF","0","-1","1","26","32","22","","26","0","right","0","25","1","11"
"6.4.1","Reversal_Task","455","2021-08-30","17:28:43","presentation_right","Experiment_block_leftstart","brush.bmp","100","0","33","130","33","114","11","39","1","Reversal","11","39","0.2000000000000000111","0.8000000000000000444","IRIF","0","-1","1","27","33","22","","27","0","right","0","25","1","11"
"6.4.1","Reversal_Task","455","2021-08-30","17:28:43","fixation","Experiment_block_leftstart","+","100","0","33","130","33","114","11","39","1","Reversal","11","39","0.2000000000000000111","0.8000000000000000444","IRIF","0","-1","1","27","33","22","","27","0","right","0","25","1","11"
"6.4.1","Reversal_Task","455","2021-08-30","17:28:43","presentation_right","Experiment_block_leftstart","brush.bmp","100","33","33","130","36","107","11","39","1","Reversal","11","39","0.2000000000000000111","0.8000000000000000444","CRIF","0","1","-1","28","34","22","","27","1","right","0","25","1","11"
"6.4.1","Reversal_Task","455","2021-08-30","17:28:43","fixation","Experiment_block_leftstart","+","100","33","33","130","36","107","11","39","1","Reversal","11","39","0.2000000000000000111","0.8000000000000000444","CRIF","0","1","-1","28","34","22","","27","1","right","1","25","1","11"
"6.4.1","Reversal_Task","455","2021-08-30","17:28:43","presentation_right","Experiment_block_leftstart","brush.bmp","100","50","33","130","36","102","11","39","1","Reversal","11","39","0.2000000000000000111","0.8000000000000000444","CRCF","0","1","1","29","35","22","","27","2","right","1","25","1","11"
"6.4.1","Reversal_Task","455","2021-08-30","17:28:43","fixation","Experiment_block_leftstart","+","100","50","33","130","36","102","11","39","1","Reversal","11","39","0.2000000000000000111","0.8000000000000000444","CRCF","0","1","1","29","35","23","","27","2","right","2","25","1","11.5"
"6.4.1","Reversal_Task","455","2021-08-30","17:28:43","presentation_right","Experiment_block_leftstart","brush.bmp","100","60","33","130","36","109","11","39","1","Reversal","11","39","0.2000000000000000111","0.8000000000000000444","CRCF","0","1","1","30","36","23","","27","3","right","2","25","1","11.5"
"6.4.1","Reversal_Task","455","2021-08-30","17:28:43","fixation","Experiment_block_leftstart","+","100","60","33","130","36","109","11","39","1","Reversal","11","39","0.2000000000000000111","0.8000000000000000444","CRCF","0","1","1","30","36","24","","27","3","right","3","25","1","12"
"6.4.1","Reversal_Task","455","2021-08-30","17:28:43","presentation_right","Experiment_block_leftstart","brush.bmp","100","66","33","130","36","101","11","39","1","Reversal","11","39","0.2000000000000000111","0.8000000000000000444","CRCF","0","1","1","31","37","24","","27","4","right","3","25","1","12"
"6.4.1","Reversal_Task","455","2021-08-30","17:28:43","fixation","Experiment_block_leftstart","+","100","66","33","130","36","101","11","39","1","Reversal","11","39","0.2000000000000000111","0.8000000000000000444","CRCF","0","1","1","31","37","25","","27","4","right","4","25","1","12.5"
"6.4.1","Reversal_Task","455","2021-08-30","17:28:43","presentation_right","Experiment_block_leftstart","brush.bmp","100","71","33","130","36","77","11","39","1","Reversal","11","39","0.2000000000000000111","0.8000000000000000444","CRIF","0","1","-1","32","38","25","","27","5","right","4","25","1","12.5"
"6.4.1","Reversal_Task","455","2021-08-30","17:28:43","fixation","Experiment_block_leftstart","+","100","71","33","130","36","77","11","39","1","Reversal","11","39","0.2000000000000000111","0.8000000000000000444","CRIF","0","1","-1","32","38","25","","27","5","right","5","25","1","12.5"
"6.4.1","Reversal_Task","455","2021-08-30","17:28:43","presentation_right","Experiment_block_leftstart","brush.bmp","100","75","33","130","36","88","11","39","1","Reversal","11","39","0.2000000000000000111","0.8000000000000000444","CRCF","0","1","1","33","39","25","","27","6","right","5","25","1","12.5"
"6.4.1","Reversal_Task","455","2021-08-30","17:28:43","fixation","Experiment_block_leftstart","+","100","75","33","130","36","88","11","39","1","Reversal","11","39","0.2000000000000000111","0.8000000000000000444","CRCF","0","1","1","33","39","26","","27","6","right","6","25","1","13"
"6.4.1","Reversal_Task","455","2021-08-30","17:28:43","presentation_right","Experiment_block_leftstart","brush.bmp","100","77","33","130","36","65","11","39","1","Reversal","11","39","0.2000000000000000111","0.8000000000000000444","CRCF","0","1","1","34","40","26","","27","7","right","6","25","1","13"
"6.4.1","Reversal_Task","455","2021-08-30","17:28:43","fixation","Experiment_block_leftstart","+","100","77","33","130","36","65","11","39","1","Reversal","11","39","0.2000000000000000111","0.8000000000000000444","CRCF","0","1","1","34","40","27","","27","7","right","7","25","1","13.5"
"6.4.1","Reversal_Task","455","2021-08-30","17:28:43","presentation_right","Experiment_block_leftstart","brush.bmp","100","80","33","130","36","49","11","39","1","Reversal","11","39","0.2000000000000000111","0.8000000000000000444","CRCF","0","1","1","35","41","27","","27","8","right","7","25","1","13.5"
"6.4.1","Reversal_Task","455","2021-08-30","17:28:43","fixation","Experiment_block_leftstart","+","100","80","33","130","36","49","11","39","1","Reversal","11","39","0.2000000000000000111","0.8000000000000000444","CRCF","0","1","1","35","41","28","","27","8","right","8","25","1","14"
"6.4.1","Reversal_Task","455","2021-08-30","17:28:43","presentation_right","Experiment_block_leftstart","brush.bmp","100","81","33","130","36","65","11","39","1","Reversal","11","39","0.2000000000000000111","0.8000000000000000444","CRCF","0","1","1","36","42","28","","27","9","right","8","25","1","14"
"6.4.1","Reversal_Task","455","2021-08-30","17:28:43","fixation","Experiment_block_leftstart","+","100","81","33","130","36","65","11","39","1","Reversal","11","39","0.2000000000000000111","0.8000000000000000444","CRCF","0","1","1","36","42","29","","27","9","right","9","25","1","14.5"
"6.4.1","Reversal_Task","455","2021-08-30","17:28:43","presentation_right","Experiment_block_leftstart","brush.bmp","100","83","33","130","36","78","11","39","1","Reversal","11","39","0.2000000000000000111","0.8000000000000000444","CRCF","0","1","1","37","43","29","","27","10","right","9","25","1","14.5"
"6.4.1","Reversal_Task","455","2021-08-30","17:28:43","fixation","Experiment_block_leftstart","+","100","83","33","130","36","78","11","39","1","Reversal","11","39","0.2000000000000000111","0.8000000000000000444","CRCF","0","1","1","37","43","30","","27","10","right","10","25","1","15"
"6.4.1","Reversal_Task","455","2021-08-30","17:28:43","presentation_right","Experiment_block_leftstart","brush.bmp","100","84","33","130","36","62","11","39","1","Reversal","11","39","0.2000000000000000111","0.8000000000000000444","CRIF","0","1","-1","38","44","30","","27","11","right","10","25","1","15"
"6.4.1","Reversal_Task","455","2021-08-30","17:28:43","fixation","Experiment_block_leftstart","+","100","84","33","130","36","62","11","39","1","Reversal","11","39","0.2000000000000000111","0.8000000000000000444","CRIF","0","1","-1","38","44","30","","27","11","right","11","25","1","15"
"6.4.1","Reversal_Task","455","2021-08-30","17:28:43","presentation_right","Experiment_block_leftstart","brush.bmp","100","85","33","130","36","0","11","39","1","Reversal","11","39","0.2000000000000000111","0.8000000000000000444","CRCF","0","1","1","39","45","30","","27","12","right","11","25","1","15"
"6.4.1","Reversal_Task","455","2021-08-30","17:28:43","fixation","Experiment_block_leftstart","+","100","85","33","130","36","0","11","39","1","Reversal","11","39","0.2000000000000000111","0.8000000000000000444","CRCF","0","1","1","39","45","31","","27","12","right","12","25","1","15.5"
"6.4.1","Reversal_Task","455","2021-08-30","17:28:43","presentation_right","Experiment_block_leftstart","brush.bmp","100","86","33","130","36","50","11","39","1","Reversal","11","39","0.2000000000000000111","0.8000000000000000444","CRCF","0","1","1","40","46","31","","27","13","right","12","25","1","15.5"
"6.4.1","Reversal_Task","455","2021-08-30","17:28:43","fixation","Experiment_block_leftstart","+","100","86","33","130","36","50","11","39","1","Reversal","11","39","0.2000000000000000111","0.8000000000000000444","CRCF","0","1","1","40","46","32","","27","13","right","13","25","1","16"
"6.4.1","Reversal_Task","455","2021-08-30","17:28:43","presentation_right","Experiment_block_leftstart","brush.bmp","100","87","33","130","36","77","11","39","1","Reversal","11","39","0.2000000000000000111","0.8000000000000000444","CRCF","0","1","1","41","47","32","","27","14","right","13","25","1","16"
"6.4.1","Reversal_Task","455","2021-08-30","17:28:43","fixation","Experiment_block_leftstart","+","100","87","33","130","36","77","11","39","1","Reversal","11","39","0.2000000000000000111","0.8000000000000000444","CRCF","0","1","1","41","47","33","","27","14","right","14","25","1","16.5"
"6.4.1","Reversal_Task","455","2021-08-30","17:28:43","presentation_right","Experiment_block_leftstart","brush.bmp","100","88","33","130","36","122","11","39","1","Reversal","11","39","0.2000000000000000111","0.8000000000000000444","CRCF","0","1","1","42","48","33","","27","15","right","14","25","1","16.5"
"6.4.1","Reversal_Task","455","2021-08-30","17:28:43","fixation","Experiment_block_leftstart","+","100","88","33","130","36","122","11","39","1","Reversal","11","39","0.2000000000000000111","0.8000000000000000444","CRCF","0","1","1","42","48","34","","27","15","right","15","25","1","17"
"6.4.1","Reversal_Task","455","2021-08-30","17:28:43","presentation_right","Experiment_block_leftstart","brush.bmp","100","88","33","130","36","51","11","39","1","Reversal","11","39","0.2000000000000000111","0.8000000000000000444","CRCF","0","1","1","43","49","34","","27","16","right","15","25","1","17"
"6.4.1","Reversal_Task","455","2021-08-30","17:28:43","fixation","Experiment_block_leftstart","+","100","88","33","130","36","51","11","39","1","Reversal","11","39","0.2000000000000000111","0.8000000000000000444","CRCF","0","1","1","43","49","35","","27","16","right","16","25","1","17.5"
"6.4.1","Reversal_Task","455","2021-08-30","17:28:43","presentation_right","Experiment_block_leftstart","brush.bmp","100","89","33","130","36","119","11","39","1","Reversal","11","39","0.2000000000000000111","0.8000000000000000444","CRCF","0","1","1","44","50","35","","27","17","right","16","25","1","17.5"
"6.4.1","Reversal_Task","455","2021-08-30","17:28:43","fixation","Experiment_block_leftstart","+","100","89","33","130","36","119","11","39","1","Reversal","11","39","0.2000000000000000111","0.8000000000000000444","CRCF","0","1","1","44","50","36","","27","17","right","17","25","1","18"
"6.4.1","Reversal_Task","455","2021-08-30","17:28:43","presentation_right","Experiment_block_leftstart","brush.bmp","100","90","33","130","36","56","11","39","1","Reversal","11","39","0.2000000000000000111","0.8000000000000000444","CRCF","0","1","1","45","51","36","","27","18","right","17","25","1","18"
"6.4.1","Reversal_Task","455","2021-08-30","17:28:43","fixation","Experiment_block_leftstart","+","100","90","33","130","36","56","11","39","1","Reversal","11","39","0.2000000000000000111","0.8000000000000000444","CRCF","0","1","1","45","51","37","","27","18","right","18","25","1","18.5"
"6.4.1","Reversal_Task","455","2021-08-30","17:28:43","presentation_right","Experiment_block_leftstart","brush.bmp","100","90","33","130","36","108","11","39","1","Reversal","11","39","0.2000000000000000111","0.8000000000000000444","CRCF","0","1","1","46","52","37","","27","19","right","18","25","1","18.5"
"6.4.1","Reversal_Task","455","2021-08-30","17:28:43","fixation","Experiment_block_leftstart","+","100","90","33","130","36","108","11","39","1","Reversal","11","39","0.2000000000000000111","0.8000000000000000444","CRCF","0","1","1","46","52","38","","27","19","right","19","25","1","19"
"6.4.1","Reversal_Task","455","2021-08-30","17:28:43","presentation_right","Experiment_block_leftstart","brush.bmp","100","90","33","130","36","86","11","39","1","Reversal","11","39","0.2000000000000000111","0.8000000000000000444","CRIF","0","1","-1","47","53","38","","27","20","right","19","25","1","19"
"6.4.1","Reversal_Task","455","2021-08-30","17:28:43","fixation","Experiment_block_leftstart","+","100","90","33","130","36","86","11","39","1","Reversal","11","39","0.2000000000000000111","0.8000000000000000444","CRIF","0","1","-1","47","53","38","","27","20","right","20","25","1","19"
"6.4.1","Reversal_Task","455","2021-08-30","17:28:43","presentation_right","Experiment_block_leftstart","brush.bmp","100","91","33","130","36","66","11","39","1","Reversal","11","39","0.2000000000000000111","0.8000000000000000444","CRCF","0","1","1","48","54","38","","27","21","right","20","25","1","19"
"6.4.1","Reversal_Task","455","2021-08-30","17:28:43","fixation","Experiment_block_leftstart","+","100","91","33","130","36","66","11","39","1","Reversal","11","39","0.2000000000000000111","0.8000000000000000444","CRCF","0","1","1","48","54","39","","27","21","right","21","25","1","19.5"
"6.4.1","Reversal_Task","455","2021-08-30","17:28:43","presentation_right","Experiment_block_leftstart","brush.bmp","100","91","33","130","36","90","11","39","1","Reversal","11","39","0.2000000000000000111","0.8000000000000000444","CRCF","0","1","1","49","55","39","","27","22","right","21","25","1","19.5"
"6.4.1","Reversal_Task","455","2021-08-30","17:28:43","fixation","Experiment_block_leftstart","+","100","91","33","130","36","90","11","39","1","Reversal","11","39","0.2000000000000000111","0.8000000000000000444","CRCF","0","1","1","49","55","40","","27","22","right","22","25","1","20"
"6.4.1","Reversal_Task","455","2021-08-30","17:28:43","presentation_right","Experiment_block_leftstart","brush.bmp","100","92","33","130","36","49","11","39","1","Reversal","11","39","0.2000000000000000111","0.8000000000000000444","CRCF","0","1","1","50","56","40","","27","23","right","22","25","1","20"
"6.4.1","Reversal_Task","455","2021-08-30","17:28:43","fixation","Experiment_block_leftstart","+","100","92","33","130","36","49","11","39","2","Reversal","11","39","0.2000000000000000111","0.8000000000000000444","CRCF","0","1","1","50","56","41","","27","23","right","23","25","1","20.5"
"6.4.1","Reversal_Task","455","2021-08-30","17:28:43","reset_trial","Experiment_block_leftstart","Press SPACE to continue","100","92","33","130","36","49","11","39","2","Reversal","11","39","0.2000000000000000111","0.8000000000000000444","CRCF","0","1","1","50","56","41","","0","0","right","23","19","1","20.5"
"6.4.1","Reversal_Task","455","2021-08-30","17:28:43","presentation_left","Experiment_block_leftstart","telescope.bmp","100","92","33","734","36","49","21","13","2","Acquisiton","21","13","0.8000000000000000444","0.2000000000000000111","CRCF","0","1","1","1","57","0","","1","0","left","23","19","21.5","0"
"6.4.1","Reversal_Task","455","2021-08-30","17:28:43","fixation","Experiment_block_leftstart","+","100","92","33","734","36","49","21","13","2","Acquisiton","21","13","0.8000000000000000444","0.2000000000000000111","CRCF","0","1","1","1","57","1","","1","0","left","24","19","21.5","0.5"
"6.4.1","Reversal_Task","455","2021-08-30","17:28:43","presentation_left","Experiment_block_leftstart","telescope.bmp","100","92","33","431","36","49","21","13","2","Acquisiton","21","13","0.8000000000000000444","0.2000000000000000111","CRCF","0","1","1","2","58","1","","2","0","left","24","19","21.5","0.5"
"6.4.1","Reversal_Task","455","2021-08-30","17:28:43","fixation","Experiment_block_leftstart","+","100","92","33","431","36","49","21","13","2","Acquisiton","21","13","0.8000000000000000444","0.2000000000000000111","CRCF","0","1","1","2","58","2","","2","0","left","25","19","21.5","1"
"6.4.1","Reversal_Task","455","2021-08-30","17:28:43","presentation_left","Experiment_block_leftstart","telescope.bmp","100","92","33","198","36","49","21","13","2","Acquisiton","21","13","0.8000000000000000444","0.2000000000000000111","CRCF","0","1","1","3","59","2","","3","0","left","25","19","21.5","1"
"6.4.1","Reversal_Task","455","2021-08-30","17:28:43","fixation","Experiment_block_leftstart","+","100","92","33","198","36","49","21","13","2","Acquisiton","21","13","0.8000000000000000444","0.2000000000000000111","CRCF","0","1","1","3","59","3","","3","0","left","26","19","21.5","1.5"
"6.4.1","Reversal_Task","455","2021-08-30","17:28:43","presentation_left","Experiment_block_leftstart","telescope.bmp","100","92","33","108","36","49","21","13","2","Acquisiton","21","13","0.8000000000000000444","0.2000000000000000111","CRIF","0","1","-1","4","60","3","","4","0","left","26","19","21.5","1.5"
"6.4.1","Reversal_Task","455","2021-08-30","17:28:43","fixation","Experiment_block_leftstart","+","100","92","33","108","36","49","21","13","2","Acquisiton","21","13","0.8000000000000000444","0.2000000000000000111","CRIF","0","1","-1","4","60","3","","4","0","left","27","19","21.5","1.5"
"6.4.1","Reversal_Task","455","2021-08-30","17:28:43","presentation_left","Experiment_block_leftstart","telescope.bmp","100","92","33","74","36","49","21","13","2","Acquisiton","21","13","0.8000000000000000444","0.2000000000000000111","CRIF","0","1","-1","5","61","3","","5","0","left","27","19","21.5","1.5"
"6.4.1","Reversal_Task","455","2021-08-30","17:28:43","fixation","Experiment_block_leftstart","+","100","92","33","74","36","49","21","13","2","Acquisiton","21","13","0.8000000000000000444","0.2000000000000000111","CRIF","0","1","-1","5","61","3","","5","0","left","28","19","21.5","1.5"
"6.4.1","Reversal_Task","455","2021-08-30","17:28:43","presentation_left","Experiment_block_leftstart","telescope.bmp","100","92","33","53","36","49","21","13","2","Acquisiton","21","13","0.8000000000000000444","0.2000000000000000111","CRCF","0","1","1","6","62","3","","6","0","left","28","19","21.5","1.5"
"6.4.1","Reversal_Task","455","2021-08-30","17:28:43","fixation","Experiment_block_leftstart","+","100","92","33","53","36","49","21","13","2","Acquisiton","21","13","0.8000000000000000444","0.2000000000000000111","CRCF","0","1","1","6","62","4","","6","0","left","29","19","21.5","2"
"6.4.1","Reversal_Task","455","2021-08-30","17:28:43","presentation_left","Experiment_block_leftstart","telescope.bmp","100","92","33","91","36","49","21","13","2","Acquisiton","21","13","0.8000000000000000444","0.2000000000000000111","CRCF","0","1","1","7","63","4","","7","0","left","29","19","21.5","2"
"6.4.1","Reversal_Task","455","2021-08-30","17:28:43","fixation","Experiment_block_leftstart","+","100","92","33","91","36","49","21","13","2","Acquisiton","21","13","0.8000000000000000444","0.2000000000000000111","CRCF","0","1","1","7","63","5","","7","0","left","30","19","21.5","2.5"
"6.4.1","Reversal_Task","455","2021-08-30","17:28:43","presentation_left","Experiment_block_leftstart","telescope.bmp","100","92","33","69","36","49","21","13","2","Acquisiton","21","13","0.8000000000000000444","0.2000000000000000111","CRCF","0","1","1","8","64","5","","8","0","left","30","19","21.5","2.5"
"6.4.1","Reversal_Task","455","2021-08-30","17:28:43","fixation","Experiment_block_leftstart","+","100","92","33","69","36","49","21","13","2","Acquisiton","21","13","0.8000000000000000444","0.2000000000000000111","CRCF","0","1","1","8","64","6","","8","0","left","31","19","21.5","3"
"6.4.1","Reversal_Task","455","2021-08-30","17:28:43","presentation_left","Experiment_block_leftstart","telescope.bmp","100","92","33","56","36","49","21","13","2","Acquisiton","21","13","0.8000000000000000444","0.2000000000000000111","CRIF","0","1","-1","9","65","6","","9","0","left","31","19","21.5","3"
"6.4.1","Reversal_Task","455","2021-08-30","17:28:43","fixation","Experiment_block_leftstart","+","100","92","33","56","36","49","21","13","2","Acquisiton","21","13","0.8000000000000000444","0.2000000000000000111","CRIF","0","1","-1","9","65","6","","9","0","left","32","19","21.5","3"
"6.4.1","Reversal_Task","455","2021-08-30","17:28:43","presentation_left","Experiment_block_leftstart","telescope.bmp","100","92","33","68","36","49","21","13","2","Acquisiton","21","13","0.8000000000000000444","0.2000000000000000111","CRCF","0","1","1","10","66","6","","10","0","left","32","19","21.5","3"
"6.4.1","Reversal_Task","455","2021-08-30","17:28:43","fixation","Experiment_block_leftstart","+","100","92","33","68","36","49","21","13","2","Acquisiton","21","13","0.8000000000000000444","0.2000000000000000111","CRCF","0","1","1","10","66","7","","10","0","left","33","19","21.5","3.5"
"6.4.1","Reversal_Task","455","2021-08-30","17:28:43","presentation_left","Experiment_block_leftstart","telescope.bmp","100","92","33","55","36","49","21","13","2","Acquisiton","21","13","0.8000000000000000444","0.2000000000000000111","CRCF","0","1","1","11","67","7","","11","0","left","33","19","21.5","3.5"
"6.4.1","Reversal_Task","455","2021-08-30","17:28:43","fixation","Experiment_block_leftstart","+","100","92","33","55","36","49","21","13","2","Acquisiton","21","13","0.8000000000000000444","0.2000000000000000111","CRCF","0","1","1","11","67","8","","11","0","left","34","19","21.5","4"
"6.4.1","Reversal_Task","455","2021-08-30","17:28:43","presentation_left","Experiment_block_leftstart","telescope.bmp","100","92","33","40","36","49","21","13","2","Acquisiton","21","13","0.8000000000000000444","0.2000000000000000111","CRCF","0","1","1","12","68","8","","12","0","left","34","19","21.5","4"
"6.4.1","Reversal_Task","455","2021-08-30","17:28:43","fixation","Experiment_block_leftstart","+","100","92","33","40","36","49","21","13","2","Acquisiton","21","13","0.8000000000000000444","0.2000000000000000111","CRCF","0","1","1","12","68","9","","12","0","left","35","19","21.5","4.5"
"6.4.1","Reversal_Task","455","2021-08-30","17:28:43","presentation_left","Experiment_block_leftstart","telescope.bmp","100","92","33","59","36","49","21","13","2","Acquisiton","21","13","0.8000000000000000444","0.2000000000000000111","CRCF","0","1","1","13","69","9","","13","0","left","35","19","21.5","4.5"
"6.4.1","Reversal_Task","455","2021-08-30","17:28:43","fixation","Experiment_block_leftstart","+","100","92","33","59","36","49","21","13","2","Acquisiton","21","13","0.8000000000000000444","0.2000000000000000111","CRCF","0","1","1","13","69","10","","13","0","left","36","19","21.5","5"
"6.4.1","Reversal_Task","455","2021-08-30","17:28:43","presentation_left","Experiment_block_leftstart","telescope.bmp","100","92","33","72","36","49","21","13","2","Acquisiton","21","13","0.8000000000000000444","0.2000000000000000111","CRCF","0","1","1","14","70","10","","14","0","left","36","19","21.5","5"
"6.4.1","Reversal_Task","455","2021-08-30","17:28:43","fixation","Experiment_block_leftstart","+","100","92","33","72","36","49","21","13","2","Acquisiton","21","13","0.8000000000000000444","0.2000000000000000111","CRCF","0","1","1","14","70","11","","14","0","left","37","19","21.5","5.5"
"6.4.1","Reversal_Task","455","2021-08-30","17:28:43","presentation_left","Experiment_block_leftstart","telescope.bmp","100","92","33","72","36","49","21","13","2","Acquisiton","21","13","0.8000000000000000444","0.2000000000000000111","CRCF","0","1","1","15","71","11","","15","0","left","37","19","21.5","5.5"
"6.4.1","Reversal_Task","455","2021-08-30","17:28:43","fixation","Experiment_block_leftstart","+","100","92","33","72","36","49","21","13","2","Acquisiton","21","13","0.8000000000000000444","0.2000000000000000111","CRCF","0","1","1","15","71","12","","15","0","left","38","19","21.5","6"
"6.4.1","Reversal_Task","455","2021-08-30","17:28:43","presentation_left","Experiment_block_leftstart","telescope.bmp","100","92","33","82","36","49","21","13","2","Acquisiton","21","13","0.8000000000000000444","0.2000000000000000111","CRCF","0","1","1","16","72","12","","16","0","left","38","19","21.5","6"
"6.4.1","Reversal_Task","455","2021-08-30","17:28:43","fixation","Experiment_block_leftstart","+","100","92","33","82","36","49","21","13","2","Acquisiton","21","13","0.8000000000000000444","0.2000000000000000111","CRCF","0","1","1","16","72","13","","16","0","left","39","19","21.5","6.5"
"6.4.1","Reversal_Task","455","2021-08-30","17:28:43","presentation_left","Experiment_block_leftstart","telescope.bmp","100","92","33","62","36","49","21","13","2","Acquisiton","21","13","0.8000000000000000444","0.2000000000000000111","CRCF","0","1","1","17","73","13","","17","0","left","39","19","21.5","6.5"
"6.4.1","Reversal_Task","455","2021-08-30","17:28:43","fixation","Experiment_block_leftstart","+","100","92","33","62","36","49","21","13","2","Acquisiton","21","13","0.8000000000000000444","0.2000000000000000111","CRCF","0","1","1","17","73","14","","17","0","left","40","19","21.5","7"
"6.4.1","Reversal_Task","455","2021-08-30","17:28:43","presentation_left","Experiment_block_leftstart","telescope.bmp","100","92","33","75","36","49","21","13","2","Acquisiton","21","13","0.8000000000000000444","0.2000000000000000111","CRCF","0","1","1","18","74","14","","18","0","left","40","19","21.5","7"
"6.4.1","Reversal_Task","455","2021-08-30","17:28:43","fixation","Experiment_block_leftstart","+","100","92","33","75","36","49","21","13","2","Acquisiton","21","13","0.8000000000000000444","0.2000000000000000111","CRCF","0","1","1","18","74","15","","18","0","left","41","19","21.5","7.5"
"6.4.1","Reversal_Task","455","2021-08-30","17:28:43","presentation_left","Experiment_block_leftstart","telescope.bmp","100","92","33","89","36","49","21","13","2","Acquisiton","21","13","0.8000000000000000444","0.2000000000000000111","CRCF","0","1","1","19","75","15","","19","0","left","41","19","21.5","7.5"
"6.4.1","Reversal_Task","455","2021-08-30","17:28:43","fixation","Experiment_block_leftstart","+","100","92","33","89","36","49","21","13","2","Acquisiton","21","13","0.8000000000000000444","0.2000000000000000111","CRCF","0","1","1","19","75","16","","19","0","left","42","19","21.5","8"
"6.4.1","Reversal_Task","455","2021-08-30","17:28:43","presentation_right","Experiment_block_leftstart","telescope.bmp","100","88","33","89","33","75","21","13","2","Reversal","21","13","0.2000000000000000111","0.8000000000000000444","IRIF","0","-1","1","20","76","16","","20","0","right","42","19","21.5","8"
"6.4.1","Reversal_Task","455","2021-08-30","17:28:43","fixation","Experiment_block_leftstart","+","100","88","33","89","33","75","21","13","2","Reversal","21","13","0.2000000000000000111","0.8000000000000000444","IRIF","0","-1","1","20","76","16","","20","0","right","0","19","21.5","8"
"6.4.1","Reversal_Task","455","2021-08-30","17:28:43","presentation_right","Experiment_block_leftstart","telescope.bmp","100","85","33","89","33","17","21","13","2","Reversal","21","13","0.2000000000000000111","0.8000000000000000444","IRIF","0","-1","1","21","77","16","","21","0","right","0","19","21.5","8"
"6.4.1","Reversal_Task","455","2021-08-30","17:28:43","fixation","Experiment_block_leftstart","+","100","85","33","89","33","17","21","13","2","Reversal","21","13","0.2000000000000000111","0.8000000000000000444","IRIF","0","-1","1","21","77","16","","21","0","right","0","19","21.5","8"
"6.4.1","Reversal_Task","455","2021-08-30","17:28:43","presentation_right","Experiment_block_leftstart","telescope.bmp","100","82","33","89","33","0","21","13","2","Reversal","21","13","0.2000000000000000111","0.8000000000000000444","IRIF","0","-1","1","22","78","16","","22","0","right","0","19","21.5","8"
"6.4.1","Reversal_Task","455","2021-08-30","17:28:43","fixation","Experiment_block_leftstart","+","100","82","33","89","33","0","21","13","2","Reversal","21","13","0.2000000000000000111","0.8000000000000000444","IRIF","0","-1","1","22","78","16","","22","0","right","0","19","21.5","8"
"6.4.1","Reversal_Task","455","2021-08-30","17:28:43","presentation_right","Experiment_block_leftstart","telescope.bmp","100","82","33","89","36","402","21","13","2","Reversal","21","13","0.2000000000000000111","0.8000000000000000444","CRIF","0","1","-1","23","79","16","","22","1","right","0","19","21.5","8"
"6.4.1","Reversal_Task","455","2021-08-30","17:28:43","fixation","Experiment_block_leftstart","+","100","82","33","89","36","402","21","13","2","Reversal","21","13","0.2000000000000000111","0.8000000000000000444","CRIF","0","1","-1","23","79","16","","22","1","right","1","19","21.5","8"
"6.4.1","Reversal_Task","455","2021-08-30","17:28:43","presentation_right","Experiment_block_leftstart","telescope.bmp","100","83","33","89","36","26","21","13","2","Reversal","21","13","0.2000000000000000111","0.8000000000000000444","CRCF","0","1","1","24","80","16","","22","2","right","1","19","21.5","8"
"6.4.1","Reversal_Task","455","2021-08-30","17:28:43","fixation","Experiment_block_leftstart","+","100","83","33","89","36","26","21","13","2","Reversal","21","13","0.2000000000000000111","0.8000000000000000444","CRCF","0","1","1","24","80","17","","22","2","right","2","19","21.5","8.5"
"6.4.1","Reversal_Task","455","2021-08-30","17:28:43","presentation_right","Experiment_block_leftstart","telescope.bmp","100","83","33","89","36","90","21","13","2","Reversal","21","13","0.2000000000000000111","0.8000000000000000444","CRIF","0","1","-1","25","81","17","","22","3","right","2","19","21.5","8.5"
"6.4.1","Reversal_Task","455","2021-08-30","17:28:43","fixation","Experiment_block_leftstart","+","100","83","33","89","36","90","21","13","2","Reversal","21","13","0.2000000000000000111","0.8000000000000000444","CRIF","0","1","-1","25","81","17","","22","3","right","3","19","21.5","8.5"
"6.4.1","Reversal_Task","455","2021-08-30","17:28:43","presentation_right","Experiment_block_leftstart","telescope.bmp","100","84","33","89","36","115","21","13","2","Reversal","21","13","0.2000000000000000111","0.8000000000000000444","CRCF","0","1","1","26","82","17","","22","4","right","3","19","21.5","8.5"
"6.4.1","Reversal_Task","455","2021-08-30","17:28:43","fixation","Experiment_block_leftstart","+","100","84","33","89","36","115","21","13","2","Reversal","21","13","0.2000000000000000111","0.8000000000000000444","CRCF","0","1","1","26","82","18","","22","4","right","4","19","21.5","9"
"6.4.1","Reversal_Task","455","2021-08-30","17:28:43","presentation_right","Experiment_block_leftstart","telescope.bmp","100","84","33","89","36","97","21","13","2","Reversal","21","13","0.2000000000000000111","0.8000000000000000444","CRCF","0","1","1","27","83","18","","22","5","right","4","19","21.5","9"
"6.4.1","Reversal_Task","455","2021-08-30","17:28:43","fixation","Experiment_block_leftstart","+","100","84","33","89","36","97","21","13","2","Reversal","21","13","0.2000000000000000111","0.8000000000000000444","CRCF","0","1","1","27","83","19","","22","5","right","5","19","21.5","9.5"
"6.4.1","Reversal_Task","455","2021-08-30","17:28:43","presentation_right","Experiment_block_leftstart","telescope.bmp","100","85","33","89","36","70","21","13","2","Reversal","21","13","0.2000000000000000111","0.8000000000000000444","CRCF","0","1","1","28","84","19","","22","6","right","5","19","21.5","9.5"
"6.4.1","Reversal_Task","455","2021-08-30","17:28:43","fixation","Experiment_block_leftstart","+","100","85","33","89","36","70","21","13","2","Reversal","21","13","0.2000000000000000111","0.8000000000000000444","CRCF","0","1","1","28","84","20","","22","6","right","6","19","21.5","10"
"6.4.1","Reversal_Task","455","2021-08-30","17:28:43","presentation_right","Experiment_block_leftstart","telescope.bmp","100","85","33","89","36","18","21","13","2","Reversal","21","13","0.2000000000000000111","0.8000000000000000444","CRCF","0","1","1","29","85","20","","22","7","right","6","19","21.5","10"
"6.4.1","Reversal_Task","455","2021-08-30","17:28:43","fixation","Experiment_block_leftstart","+","100","85","33","89","36","18","21","13","2","Reversal","21","13","0.2000000000000000111","0.8000000000000000444","CRCF","0","1","1","29","85","21","","22","7","right","7","19","21.5","10.5"
"6.4.1","Reversal_Task","455","2021-08-30","17:28:43","presentation_right","Experiment_block_leftstart","telescope.bmp","100","86","33","89","36","109","21","13","2","Reversal","21","13","0.2000000000000000111","0.8000000000000000444","CRCF","0","1","1","30","86","21","","22","8","right","7","19","21.5","10.5"
"6.4.1","Reversal_Task","455","2021-08-30","17:28:43","fixation","Experiment_block_leftstart","+","100","86","33","89","36","109","21","13","2","Reversal","21","13","0.2000000000000000111","0.8000000000000000444","CRCF","0","1","1","30","86","22","","22","8","right","8","19","21.5","11"
"6.4.1","Reversal_Task","455","2021-08-30","17:28:43","presentation_right","Experiment_block_leftstart","telescope.bmp","100","86","33","89","36","52","21","13","2","Reversal","21","13","0.2000000000000000111","0.8000000000000000444","CRCF","0","1","1","31","87","22","","22","9","right","8","19","21.5","11"
"6.4.1","Reversal_Task","455","2021-08-30","17:28:43","fixation","Experiment_block_leftstart","+","100","86","33","89","36","52","21","13","2","Reversal","21","13","0.2000000000000000111","0.8000000000000000444","CRCF","0","1","1","31","87","23","","22","9","right","9","19","21.5","11.5"
"6.4.1","Reversal_Task","455","2021-08-30","17:28:43","presentation_right","Experiment_block_leftstart","telescope.bmp","100","86","33","89","36","98","21","13","2","Reversal","21","13","0.2000000000000000111","0.8000000000000000444","CRCF","0","1","1","32","88","23","","22","10","right","9","19","21.5","11.5"
"6.4.1","Reversal_Task","455","2021-08-30","17:28:43","fixation","Experiment_block_leftstart","+","100","86","33","89","36","98","21","13","2","Reversal","21","13","0.2000000000000000111","0.8000000000000000444","CRCF","0","1","1","32","88","24","","22","10","right","10","19","21.5","12"
"6.4.1","Reversal_Task","455","2021-08-30","17:28:43","presentation_right","Experiment_block_leftstart","telescope.bmp","100","87","33","89","36","72","21","13","2","Reversal","21","13","0.2000000000000000111","0.8000000000000000444","CRIF","0","1","-1","33","89","24","","22","11","right","10","19","21.5","12"
"6.4.1","Reversal_Task","455","2021-08-30","17:28:43","fixation","Experiment_block_leftstart","+","100","87","33","89","36","72","21","13","2","Reversal","21","13","0.2000000000000000111","0.8000000000000000444","CRIF","0","1","-1","33","89","24","","22","11","right","11","19","21.5","12"
"6.4.1","Reversal_Task","455","2021-08-30","17:28:43","presentation_right","Experiment_block_leftstart","telescope.bmp","100","87","33","89","36","83","21","13","2","Reversal","21","13","0.2000000000000000111","0.8000000000000000444","CRCF","0","1","1","34","90","24","","22","12","right","11","19","21.5","12"
"6.4.1","Reversal_Task","455","2021-08-30","17:28:43","fixation","Experiment_block_leftstart","+","100","87","33","89","36","83","21","13","2","Reversal","21","13","0.2000000000000000111","0.8000000000000000444","CRCF","0","1","1","34","90","25","","22","12","right","12","19","21.5","12.5"
"6.4.1","Reversal_Task","455","2021-08-30","17:28:43","presentation_right","Experiment_block_leftstart","telescope.bmp","100","87","33","89","36","140","21","13","2","Reversal","21","13","0.2000000000000000111","0.8000000000000000444","CRCF","0","1","1","35","91","25","","22","13","right","12","19","21.5","12.5"
"6.4.1","Reversal_Task","455","2021-08-30","17:28:43","fixation","Experiment_block_leftstart","+","100","87","33","89","36","140","21","13","2","Reversal","21","13","0.2000000000000000111","0.8000000000000000444","CRCF","0","1","1","35","91","26","","22","13","right","13","19","21.5","13"
"6.4.1","Reversal_Task","455","2021-08-30","17:28:43","presentation_right","Experiment_block_leftstart","telescope.bmp","100","88","33","89","36","111","21","13","2","Reversal","21","13","0.2000000000000000111","0.8000000000000000444","CRCF","0","1","1","36","92","26","","22","14","right","13","19","21.5","13"
"6.4.1","Reversal_Task","455","2021-08-30","17:28:43","fixation","Experiment_block_leftstart","+","100","88","33","89","36","111","21","13","2","Reversal","21","13","0.2000000000000000111","0.8000000000000000444","CRCF","0","1","1","36","92","27","","22","14","right","14","19","21.5","13.5"
"6.4.1","Reversal_Task","455","2021-08-30","17:28:43","presentation_right","Experiment_block_leftstart","telescope.bmp","100","88","33","89","36","96","21","13","2","Reversal","21","13","0.2000000000000000111","0.8000000000000000444","CRIF","0","1","-1","37","93","27","","22","15","right","14","19","21.5","13.5"
"6.4.1","Reversal_Task","455","2021-08-30","17:28:43","fixation","Experiment_block_leftstart","+","100","88","33","89","36","96","21","13","2","Reversal","21","13","0.2000000000000000111","0.8000000000000000444","CRIF","0","1","-1","37","93","27","","22","15","right","15","19","21.5","13.5"
"6.4.1","Reversal_Task","455","2021-08-30","17:28:43","presentation_right","Experiment_block_leftstart","telescope.bmp","100","88","33","89","36","73","21","13","2","Reversal","21","13","0.2000000000000000111","0.8000000000000000444","CRCF","0","1","1","38","94","27","","22","16","right","15","19","21.5","13.5"
"6.4.1","Reversal_Task","455","2021-08-30","17:28:43","fixation","Experiment_block_leftstart","+","100","88","33","89","36","73","21","13","2","Reversal","21","13","0.2000000000000000111","0.8000000000000000444","CRCF","0","1","1","38","94","28","","22","16","right","16","19","21.5","14"
"6.4.1","Reversal_Task","455","2021-08-30","17:28:43","presentation_right","Experiment_block_leftstart","telescope.bmp","100","88","33","89","36","78","21","13","2","Reversal","21","13","0.2000000000000000111","0.8000000000000000444","CRCF","0","1","1","39","95","28","","22","17","right","16","19","21.5","14"
"6.4.1","Reversal_Task","455","2021-08-30","17:28:43","fixation","Experiment_block_leftstart","+","100","88","33","89","36","78","21","13","2","Reversal","21","13","0.2000000000000000111","0.8000000000000000444","CRCF","0","1","1","39","95","29","","22","17","right","17","19","21.5","14.5"
"6.4.1","Reversal_Task","455","2021-08-30","17:28:43","presentation_right","Experiment_block_leftstart","telescope.bmp","100","89","33","89","36","25","21","13","2","Reversal","21","13","0.2000000000000000111","0.8000000000000000444","CRCF","0","1","1","40","96","29","","22","18","right","17","19","21.5","14.5"
"6.4.1","Reversal_Task","455","2021-08-30","17:28:43","fixation","Experiment_block_leftstart","+","100","89","33","89","36","25","21","13","2","Reversal","21","13","0.2000000000000000111","0.8000000000000000444","CRCF","0","1","1","40","96","30","","22","18","right","18","19","21.5","15"
"6.4.1","Reversal_Task","455","2021-08-30","17:28:43","presentation_right","Experiment_block_leftstart","telescope.bmp","100","89","33","89","36","43","21","13","2","Reversal","21","13","0.2000000000000000111","0.8000000000000000444","CRCF","0","1","1","41","97","30","","22","19","right","18","19","21.5","15"
"6.4.1","Reversal_Task","455","2021-08-30","17:28:43","fixation","Experiment_block_leftstart","+","100","89","33","89","36","43","21","13","2","Reversal","21","13","0.2000000000000000111","0.8000000000000000444","CRCF","0","1","1","41","97","31","","22","19","right","19","19","21.5","15.5"
"6.4.1","Reversal_Task","455","2021-08-30","17:28:43","presentation_right","Experiment_block_leftstart","telescope.bmp","100","89","33","89","36","102","21","13","2","Reversal","21","13","0.2000000000000000111","0.8000000000000000444","CRCF","0","1","1","42","98","31","","22","20","right","19","19","21.5","15.5"
"6.4.1","Reversal_Task","455","2021-08-30","17:28:43","fixation","Experiment_block_leftstart","+","100","89","33","89","36","102","21","13","2","Reversal","21","13","0.2000000000000000111","0.8000000000000000444","CRCF","0","1","1","42","98","32","","22","20","right","20","19","21.5","16"
"6.4.1","Reversal_Task","455","2021-08-30","17:28:43","presentation_right","Experiment_block_leftstart","telescope.bmp","100","89","33","89","36","65","21","13","2","Reversal","21","13","0.2000000000000000111","0.8000000000000000444","CRCF","0","1","1","43","99","32","","22","21","right","20","19","21.5","16"
"6.4.1","Reversal_Task","455","2021-08-30","17:28:43","fixation","Experiment_block_leftstart","+","100","89","33","89","36","65","21","13","2","Reversal","21","13","0.2000000000000000111","0.8000000000000000444","CRCF","0","1","1","43","99","33","","22","21","right","21","19","21.5","16.5"
"6.4.1","Reversal_Task","455","2021-08-30","17:28:43","presentation_right","Experiment_block_leftstart","telescope.bmp","100","90","33","89","36","72","21","13","2","Reversal","21","13","0.2000000000000000111","0.8000000000000000444","CRCF","0","1","1","44","100","33","","22","22","right","21","19","21.5","16.5"
"6.4.1","Reversal_Task","455","2021-08-30","17:28:43","fixation","Experiment_block_leftstart","+","100","90","33","89","36","72","21","13","2","Reversal","21","13","0.2000000000000000111","0.8000000000000000444","CRCF","0","1","1","44","100","34","","22","22","right","22","19","21.5","17"
"6.4.1","Reversal_Task","455","2021-08-30","17:28:43","presentation_right","Experiment_block_leftstart","telescope.bmp","100","90","33","89","36","85","21","13","2","Reversal","21","13","0.2000000000000000111","0.8000000000000000444","CRCF","0","1","1","45","101","34","","22","23","right","22","19","21.5","17"
"6.4.1","Reversal_Task","455","2021-08-30","17:28:43","fixation","Experiment_block_leftstart","+","100","90","33","89","36","85","21","13","2","Reversal","21","13","0.2000000000000000111","0.8000000000000000444","CRCF","0","1","1","45","101","35","","22","23","right","23","19","21.5","17.5"
"6.4.1","Reversal_Task","455","2021-08-30","17:28:43","presentation_right","Experiment_block_leftstart","telescope.bmp","100","90","33","89","36","109","21","13","2","Reversal","21","13","0.2000000000000000111","0.8000000000000000444","CRCF","0","1","1","46","102","35","","22","24","right","23","19","21.5","17.5"
"6.4.1","Reversal_Task","455","2021-08-30","17:28:43","fixation","Experiment_block_leftstart","+","100","90","33","89","36","109","21","13","2","Reversal","21","13","0.2000000000000000111","0.8000000000000000444","CRCF","0","1","1","46","102","36","","22","24","right","24","19","21.5","18"
"6.4.1","Reversal_Task","455","2021-08-30","17:28:43","presentation_right","Experiment_block_leftstart","telescope.bmp","100","90","33","89","36","85","21","13","2","Reversal","21","13","0.2000000000000000111","0.8000000000000000444","CRCF","0","1","1","47","103","36","","22","25","right","24","19","21.5","18"
"6.4.1","Reversal_Task","455","2021-08-30","17:28:43","fixation","Experiment_block_leftstart","+","100","90","33","89","36","85","21","13","2","Reversal","21","13","0.2000000000000000111","0.8000000000000000444","CRCF","0","1","1","47","103","37","","22","25","right","25","19","21.5","18.5"
"6.4.1","Reversal_Task","455","2021-08-30","17:28:43","presentation_right","Experiment_block_leftstart","telescope.bmp","100","90","33","89","36","109","21","13","2","Reversal","21","13","0.2000000000000000111","0.8000000000000000444","CRCF","0","1","1","48","104","37","","22","26","right","25","19","21.5","18.5"
"6.4.1","Reversal_Task","455","2021-08-30","17:28:43","fixation","Experiment_block_leftstart","+","100","90","33","89","36","109","21","13","2","Reversal","21","13","0.2000000000000000111","0.8000000000000000444","CRCF","0","1","1","48","104","38","","22","26","right","26","19","21.5","19"
"6.4.1","Reversal_Task","455","2021-08-30","17:28:43","presentation_right","Experiment_block_leftstart","telescope.bmp","100","90","33","89","36","57","21","13","2","Reversal","21","13","0.2000000000000000111","0.8000000000000000444","CRCF","0","1","1","49","105","38","","22","27","right","26","19","21.5","19"
"6.4.1","Reversal_Task","455","2021-08-30","17:28:43","fixation","Experiment_block_leftstart","+","100","90","33","89","36","57","21","13","2","Reversal","21","13","0.2000000000000000111","0.8000000000000000444","CRCF","0","1","1","49","105","39","","22","27","right","27","19","21.5","19.5"
"6.4.1","Reversal_Task","455","2021-08-30","17:28:43","presentation_right","Experiment_block_leftstart","telescope.bmp","100","91","33","89","36","99","21","13","2","Reversal","21","13","0.2000000000000000111","0.8000000000000000444","CRCF","0","1","1","50","106","39","","22","28","right","27","19","21.5","19.5"
"6.4.1","Reversal_Task","455","2021-08-30","17:28:43","fixation","Experiment_block_leftstart","+","100","91","33","89","36","99","21","13","3","Reversal","21","13","0.2000000000000000111","0.8000000000000000444","CRCF","0","1","1","50","106","40","","22","28","right","28","19","21.5","20"
"6.4.1","Reversal_Task","455","2021-08-30","17:28:43","reset_trial","Experiment_block_leftstart","Press SPACE to continue","100","91","33","89","36","99","21","13","3","Reversal","21","13","0.2000000000000000111","0.8000000000000000444","CRCF","0","1","1","50","106","40","","0","0","right","28","23","21.5","20"
"6.4.1","Reversal_Task","455","2021-08-30","17:28:43","presentation_right","Experiment_block_rightstart","globe.bmp","100","100","33","89","36","698","22","35","3","Acquisiton","22","35","0.2000000000000000111","0.8000000000000000444","CRCF","0","1","1","1","107","0","","0","1","right","28","23","41.5","0"
"6.4.1","Reversal_Task","455","2021-08-30","17:28:43","fixation","Experiment_block_rightstart","+","100","100","33","89","36","698","22","35","3","Acquisiton","22","35","0.2000000000000000111","0.8000000000000000444","CRCF","0","1","1","1","107","1","","0","1","right","29","23","41.5","0.5"
"6.4.1","Reversal_Task","455","2021-08-30","17:28:43","presentation_right","Experiment_block_rightstart","globe.bmp","100","100","33","89","36","95","22","35","3","Acquisiton","22","35","0.2000000000000000111","0.8000000000000000444","CRCF","0","1","1","2","108","1","","0","2","right","29","23","41.5","0.5"
"6.4.1","Reversal_Task","455","2021-08-30","17:28:43","fixation","Experiment_block_rightstart","+","100","100","33","89","36","95","22","35","3","Acquisiton","22","35","0.2000000000000000111","0.8000000000000000444","CRCF","0","1","1","2","108","2","","0","2","right","30","23","41.5","1"
"6.4.1","Reversal_Task","455","2021-08-30","17:28:43","presentation_right","Experiment_block_rightstart","globe.bmp","100","100","33","89","36","108","22","35","3","Acquisiton","22","35","0.2000000000000000111","0.8000000000000000444","CRCF","0","1","1","3","109","2","","0","3","right","30","23","41.5","1"
"6.4.1","Reversal_Task","455","2021-08-30","17:28:43","fixation","Experiment_block_rightstart","+","100","100","33","89","36","108","22","35","3","Acquisiton","22","35","0.2000000000000000111","0.8000000000000000444","CRCF","0","1","1","3","109","3","","0","3","right","31","23","41.5","1.5"
"6.4.1","Reversal_Task","455","2021-08-30","17:28:43","presentation_right","Experiment_block_rightstart","globe.bmp","100","100","33","89","36","103","22","35","3","Acquisiton","22","35","0.2000000000000000111","0.8000000000000000444","CRCF","0","1","1","4","110","3","","0","4","right","31","23","41.5","1.5"
"6.4.1","Reversal_Task","455","2021-08-30","17:28:43","fixation","Experiment_block_rightstart","+","100","100","33","89","36","103","22","35","3","Acquisiton","22","35","0.2000000000000000111","0.8000000000000000444","CRCF","0","1","1","4","110","4","","0","4","right","32","23","41.5","2"
"6.4.1","Reversal_Task","455","2021-08-30","17:28:43","presentation_right","Experiment_block_rightstart","globe.bmp","100","100","33","89","36","103","22","35","3","Acquisiton","22","35","0.2000000000000000111","0.8000000000000000444","CRCF","0","1","1","5","111","4","","0","5","right","32","23","41.5","2"
"6.4.1","Reversal_Task","455","2021-08-30","17:28:43","fixation","Experiment_block_rightstart","+","100","100","33","89","36","103","22","35","3","Acquisiton","22","35","0.2000000000000000111","0.8000000000000000444","CRCF","0","1","1","5","111","5","","0","5","right","33","23","41.5","2.5"
"6.4.1","Reversal_Task","455","2021-08-30","17:28:43","presentation_right","Experiment_block_rightstart","globe.bmp","100","100","33","89","36","77","22","35","3","Acquisiton","22","35","0.2000000000000000111","0.8000000000000000444","CRIF","0","1","-1","6","112","5","","0","6","right","33","23","41.5","2.5"
"6.4.1","Reversal_Task","455","2021-08-30","17:28:43","fixation","Experiment_block_rightstart","+","100","100","33","89","36","77","22","35","3","Acquisiton","22","35","0.2000000000000000111","0.8000000000000000444","CRIF","0","1","-1","6","112","5","","0","6","right","34","23","41.5","2.5"
"6.4.1","Reversal_Task","455","2021-08-30","17:28:43","presentation_right","Experiment_block_rightstart","globe.bmp","100","100","33","89","36","89","22","35","3","Acquisiton","22","35","0.2000000000000000111","0.8000000000000000444","CRCF","0","1","1","7","113","5","","0","7","right","34","23","41.5","2.5"
"6.4.1","Reversal_Task","455","2021-08-30","17:28:43","fixation","Experiment_block_rightstart","+","100","100","33","89","36","89","22","35","3","Acquisiton","22","35","0.2000000000000000111","0.8000000000000000444","CRCF","0","1","1","7","113","6","","0","7","right","35","23","41.5","3"
"6.4.1","Reversal_Task","455","2021-08-30","17:28:43","presentation_right","Experiment_block_rightstart","globe.bmp","100","100","33","89","36","122","22","35","3","Acquisiton","22","35","0.2000000000000000111","0.8000000000000000444","CRCF","0","1","1","8","114","6","","0","8","right","35","23","41.5","3"
"6.4.1","Reversal_Task","455","2021-08-30","17:28:43","fixation","Experiment_block_rightstart","+","100","100","33","89","36","122","22","35","3","Acquisiton","22","35","0.2000000000000000111","0.8000000000000000444","CRCF","0","1","1","8","114","7","","0","8","right","36","23","41.5","3.5"
"6.4.1","Reversal_Task","455","2021-08-30","17:28:43","presentation_right","Experiment_block_rightstart","globe.bmp","100","100","33","89","36","82","22","35","3","Acquisiton","22","35","0.2000000000000000111","0.8000000000000000444","CRCF","0","1","1","9","115","7","","0","9","right","36","23","41.5","3.5"
"6.4.1","Reversal_Task","455","2021-08-30","17:28:43","fixation","Experiment_block_rightstart","+","100","100","33","89","36","82","22","35","3","Acquisiton","22","35","0.2000000000000000111","0.8000000000000000444","CRCF","0","1","1","9","115","8","","0","9","right","37","23","41.5","4"
"6.4.1","Reversal_Task","455","2021-08-30","17:28:43","presentation_right","Experiment_block_rightstart","globe.bmp","100","100","33","89","36","95","22","35","3","Acquisiton","22","35","0.2000000000000000111","0.8000000000000000444","CRIF","0","1","-1","10","116","8","","0","10","right","37","23","41.5","4"
"6.4.1","Reversal_Task","455","2021-08-30","17:28:43","fixation","Experiment_block_rightstart","+","100","100","33","89","36","95","22","35","3","Acquisiton","22","35","0.2000000000000000111","0.8000000000000000444","CRIF","0","1","-1","10","116","8","","0","10","right","38","23","41.5","4"
"6.4.1","Reversal_Task","455","2021-08-30","17:28:43","presentation_right","Experiment_block_rightstart","globe.bmp","100","100","33","89","36","56","22","35","3","Acquisiton","22","35","0.2000000000000000111","0.8000000000000000444","CRCF","0","1","1","11","117","8","","0","11","right","38","23","41.5","4"
"6.4.1","Reversal_Task","455","2021-08-30","17:28:43","fixation","Experiment_block_rightstart","+","100","100","33","89","36","56","22","35","3","Acquisiton","22","35","0.2000000000000000111","0.8000000000000000444","CRCF","0","1","1","11","117","9","","0","11","right","39","23","41.5","4.5"
"6.4.1","Reversal_Task","455","2021-08-30","17:28:43","presentation_right","Experiment_block_rightstart","globe.bmp","100","100","33","89","36","112","22","35","3","Acquisiton","22","35","0.2000000000000000111","0.8000000000000000444","CRCF","0","1","1","12","118","9","","0","12","right","39","23","41.5","4.5"
"6.4.1","Reversal_Task","455","2021-08-30","17:28:43","fixation","Experiment_block_rightstart","+","100","100","33","89","36","112","22","35","3","Acquisiton","22","35","0.2000000000000000111","0.8000000000000000444","CRCF","0","1","1","12","118","10","","0","12","right","40","23","41.5","5"
"6.4.1","Reversal_Task","455","2021-08-30","17:28:43","presentation_right","Experiment_block_rightstart","globe.bmp","100","100","33","89","36","61","22","35","3","Acquisiton","22","35","0.2000000000000000111","0.8000000000000000444","CRCF","0","1","1","13","119","10","","0","13","right","40","23","41.5","5"
"6.4.1","Reversal_Task","455","2021-08-30","17:28:43","fixation","Experiment_block_rightstart","+","100","100","33","89","36","61","22","35","3","Acquisiton","22","35","0.2000000000000000111","0.8000000000000000444","CRCF","0","1","1","13","119","11","","0","13","right","41","23","41.5","5.5"
"6.4.1","Reversal_Task","455","2021-08-30","17:28:43","presentation_right","Experiment_block_rightstart","globe.bmp","100","100","33","89","36","102","22","35","3","Acquisiton","22","35","0.2000000000000000111","0.8000000000000000444","CRCF","0","1","1","14","120","11","","0","14","right","41","23","41.5","5.5"
"6.4.1","Reversal_Task","455","2021-08-30","17:28:43","fixation","Experiment_block_rightstart","+","100","100","33","89","36","102","22","35","3","Acquisiton","22","35","0.2000000000000000111","0.8000000000000000444","CRCF","0","1","1","14","120","12","","0","14","right","42","23","41.5","6"
"6.4.1","Reversal_Task","455","2021-08-30","17:28:43","presentation_right","Experiment_block_rightstart","globe.bmp","100","100","33","89","36","109","22","35","3","Acquisiton","22","35","0.2000000000000000111","0.8000000000000000444","CRCF","0","1","1","15","121","12","","0","15","right","42","23","41.5","6"
"6.4.1","Reversal_Task","455","2021-08-30","17:28:43","fixation","Experiment_block_rightstart","+","100","100","33","89","36","109","22","35","3","Acquisiton","22","35","0.2000000000000000111","0.8000000000000000444","CRCF","0","1","1","15","121","13","","0","15","right","43","23","41.5","6.5"
"6.4.1","Reversal_Task","455","2021-08-30","17:28:43","presentation_right","Experiment_block_rightstart","globe.bmp","100","100","33","89","36","119","22","35","3","Acquisiton","22","35","0.2000000000000000111","0.8000000000000000444","CRCF","0","1","1","16","122","13","","0","16","right","43","23","41.5","6.5"
"6.4.1","Reversal_Task","455","2021-08-30","17:28:43","fixation","Experiment_block_rightstart","+","100","100","33","89","36","119","22","35","3","Acquisiton","22","35","0.2000000000000000111","0.8000000000000000444","CRCF","0","1","1","16","122","14","","0","16","right","44","23","41.5","7"
"6.4.1","Reversal_Task","455","2021-08-30","17:28:43","presentation_right","Experiment_block_rightstart","globe.bmp","100","100","33","89","36","107","22","35","3","Acquisiton","22","35","0.2000000000000000111","0.8000000000000000444","CRCF","0","1","1","17","123","14","","0","17","right","44","23","41.5","7"
"6.4.1","Reversal_Task","455","2021-08-30","17:28:43","fixation","Experiment_block_rightstart","+","100","100","33","89","36","107","22","35","3","Acquisiton","22","35","0.2000000000000000111","0.8000000000000000444","CRCF","0","1","1","17","123","15","","0","17","right","45","23","41.5","7.5"
"6.4.1","Reversal_Task","455","2021-08-30","17:28:43","presentation_right","Experiment_block_rightstart","globe.bmp","100","100","33","89","36","107","22","35","3","Acquisiton","22","35","0.2000000000000000111","0.8000000000000000444","CRCF","0","1","1","18","124","15","","0","18","right","45","23","41.5","7.5"
"6.4.1","Reversal_Task","455","2021-08-30","17:28:43","fixation","Experiment_block_rightstart","+","100","100","33","89","36","107","22","35","3","Acquisiton","22","35","0.2000000000000000111","0.8000000000000000444","CRCF","0","1","1","18","124","16","","0","18","right","46","23","41.5","8"
"6.4.1","Reversal_Task","455","2021-08-30","17:28:43","presentation_right","Experiment_block_rightstart","globe.bmp","100","100","33","89","36","153","22","35","3","Acquisiton","22","35","0.2000000000000000111","0.8000000000000000444","CRCF","0","1","1","19","125","16","","0","19","right","46","23","41.5","8"
"6.4.1","Reversal_Task","455","2021-08-30","17:28:43","fixation","Experiment_block_rightstart","+","100","100","33","89","36","153","22","35","3","Acquisiton","22","35","0.2000000000000000111","0.8000000000000000444","CRCF","0","1","1","19","125","17","","0","19","right","47","23","41.5","8.5"
"6.4.1","Reversal_Task","455","2021-08-30","17:28:43","presentation_right","Experiment_block_rightstart","globe.bmp","100","100","33","89","36","35","22","35","3","Acquisiton","22","35","0.2000000000000000111","0.8000000000000000444","CRIF","0","1","-1","20","126","17","","0","20","right","47","23","41.5","8.5"
"6.4.1","Reversal_Task","455","2021-08-30","17:28:43","fixation","Experiment_block_rightstart","+","100","100","33","89","36","35","22","35","3","Acquisiton","22","35","0.2000000000000000111","0.8000000000000000444","CRIF","0","1","-1","20","126","17","","0","20","right","48","23","41.5","8.5"
"6.4.1","Reversal_Task","455","2021-08-30","17:28:43","presentation_right","Experiment_block_rightstart","globe.bmp","100","100","33","89","36","103","22","35","3","Acquisiton","22","35","0.2000000000000000111","0.8000000000000000444","CRIF","0","1","-1","21","127","17","","0","21","right","48","23","41.5","8.5"
"6.4.1","Reversal_Task","455","2021-08-30","17:28:43","fixation","Experiment_block_rightstart","+","100","100","33","89","36","103","22","35","3","Acquisiton","22","35","0.2000000000000000111","0.8000000000000000444","CRIF","0","1","-1","21","127","17","","0","21","right","49","23","41.5","8.5"
"6.4.1","Reversal_Task","455","2021-08-30","17:28:43","presentation_right","Experiment_block_rightstart","globe.bmp","100","95","33","89","33","80","22","35","3","Acquisiton","22","35","0.2000000000000000111","0.8000000000000000444","IRIF","0","-1","1","22","128","17","","1","21","right","49","23","41.5","8.5"
"6.4.1","Reversal_Task","455","2021-08-30","17:28:43","fixation","Experiment_block_rightstart","+","100","95","33","89","33","80","22","35","3","Acquisiton","22","35","0.2000000000000000111","0.8000000000000000444","IRIF","0","-1","1","22","128","17","","1","21","right","0","23","41.5","8.5"
"6.4.1","Reversal_Task","455","2021-08-30","17:28:43","presentation_right","Experiment_block_rightstart","globe.bmp","100","91","33","89","33","18","22","35","3","Acquisiton","22","35","0.2000000000000000111","0.8000000000000000444","IRIF","0","-1","1","23","129","17","","2","21","right","0","23","41.5","8.5"
"6.4.1","Reversal_Task","455","2021-08-30","17:28:43","fixation","Experiment_block_rightstart","+","100","91","33","89","33","18","22","35","3","Acquisiton","22","35","0.2000000000000000111","0.8000000000000000444","IRIF","0","-1","1","23","129","17","","2","21","right","0","23","41.5","8.5"
"6.4.1","Reversal_Task","455","2021-08-30","17:28:43","presentation_left","Experiment_block_rightstart","globe.bmp","0","91","36","405","33","18","22","35","3","Reversal","22","35","0.8000000000000000444","0.2000000000000000111","IRIF","0","-1","1","24","130","17","","2","22","left","0","23","41.5","8.5"
"6.4.1","Reversal_Task","455","2021-08-30","17:28:43","fixation","Experiment_block_rightstart","+","0","91","36","405","33","18","22","35","3","Reversal","22","35","0.8000000000000000444","0.2000000000000000111","IRIF","0","-1","1","24","130","17","","2","22","left","0","23","41.5","8.5"
"6.4.1","Reversal_Task","455","2021-08-30","17:28:43","presentation_left","Experiment_block_rightstart","globe.bmp","50","91","33","34","33","18","22","35","3","Reversal","22","35","0.8000000000000000444","0.2000000000000000111","CRCF","0","1","1","25","131","17","","3","22","left","0","23","41.5","8.5"
"6.4.1","Reversal_Task","455","2021-08-30","17:28:43","fixation","Experiment_block_rightstart","+","50","91","33","34","33","18","22","35","3","Reversal","22","35","0.8000000000000000444","0.2000000000000000111","CRCF","0","1","1","25","131","18","","3","22","left","1","23","41.5","9"
"6.4.1","Reversal_Task","455","2021-08-30","17:28:43","presentation_left","Experiment_block_rightstart","globe.bmp","66","91","33","102","33","18","22","35","3","Reversal","22","35","0.8000000000000000444","0.2000000000000000111","CRCF","0","1","1","26","132","18","","4","22","left","1","23","41.5","9"
"6.4.1","Reversal_Task","455","2021-08-30","17:28:43","fixation","Experiment_block_rightstart","+","66","91","33","102","33","18","22","35","3","Reversal","22","35","0.8000000000000000444","0.2000000000000000111","CRCF","0","1","1","26","132","19","","4","22","left","2","23","41.5","9.5"
"6.4.1","Reversal_Task","455","2021-08-30","17:28:43","presentation_left","Experiment_block_rightstart","globe.bmp","75","91","33","127","33","18","22","35","3","Reversal","22","35","0.8000000000000000444","0.2000000000000000111","CRCF","0","1","1","27","133","19","","5","22","left","2","23","41.5","9.5"
"6.4.1","Reversal_Task","455","2021-08-30","17:28:43","fixation","Experiment_block_rightstart","+","75","91","33","127","33","18","22","35","3","Reversal","22","35","0.8000000000000000444","0.2000000000000000111","CRCF","0","1","1","27","133","20","","5","22","left","3","23","41.5","10"
"6.4.1","Reversal_Task","455","2021-08-30","17:28:43","presentation_left","Experiment_block_rightstart","globe.bmp","80","91","33","100","33","18","22","35","3","Reversal","22","35","0.8000000000000000444","0.2000000000000000111","CRIF","0","1","-1","28","134","20","","6","22","left","3","23","41.5","10"
"6.4.1","Reversal_Task","455","2021-08-30","17:28:43","fixation","Experiment_block_rightstart","+","80","91","33","100","33","18","22","35","3","Reversal","22","35","0.8000000000000000444","0.2000000000000000111","CRIF","0","1","-1","28","134","20","","6","22","left","4","23","41.5","10"
"6.4.1","Reversal_Task","455","2021-08-30","17:28:43","presentation_left","Experiment_block_rightstart","globe.bmp","83","91","33","90","33","18","22","35","3","Reversal","22","35","0.8000000000000000444","0.2000000000000000111","CRCF","0","1","1","29","135","20","","7","22","left","4","23","41.5","10"
"6.4.1","Reversal_Task","455","2021-08-30","17:28:43","fixation","Experiment_block_rightstart","+","83","91","33","90","33","18","22","35","3","Reversal","22","35","0.8000000000000000444","0.2000000000000000111","CRCF","0","1","1","29","135","21","","7","22","left","5","23","41.5","10.5"
"6.4.1","Reversal_Task","455","2021-08-30","17:28:43","presentation_left","Experiment_block_rightstart","globe.bmp","85","91","33","103","33","18","22","35","3","Reversal","22","35","0.8000000000000000444","0.2000000000000000111","CRCF","0","1","1","30","136","21","","8","22","left","5","23","41.5","10.5"
"6.4.1","Reversal_Task","455","2021-08-30","17:28:43","fixation","Experiment_block_rightstart","+","85","91","33","103","33","18","22","35","3","Reversal","22","35","0.8000000000000000444","0.2000000000000000111","CRCF","0","1","1","30","136","22","","8","22","left","6","23","41.5","11"
"6.4.1","Reversal_Task","455","2021-08-30","17:28:43","presentation_left","Experiment_block_rightstart","globe.bmp","87","91","33","129","33","18","22","35","3","Reversal","22","35","0.8000000000000000444","0.2000000000000000111","CRCF","0","1","1","31","137","22","","9","22","left","6","23","41.5","11"
"6.4.1","Reversal_Task","455","2021-08-30","17:28:43","fixation","Experiment_block_rightstart","+","87","91","33","129","33","18","22","35","3","Reversal","22","35","0.8000000000000000444","0.2000000000000000111","CRCF","0","1","1","31","137","23","","9","22","left","7","23","41.5","11.5"
"6.4.1","Reversal_Task","455","2021-08-30","17:28:43","presentation_left","Experiment_block_rightstart","globe.bmp","88","91","33","168","33","18","22","35","3","Reversal","22","35","0.8000000000000000444","0.2000000000000000111","CRCF","0","1","1","32","138","23","","10","22","left","7","23","41.5","11.5"
"6.4.1","Reversal_Task","455","2021-08-30","17:28:43","fixation","Experiment_block_rightstart","+","88","91","33","168","33","18","22","35","3","Reversal","22","35","0.8000000000000000444","0.2000000000000000111","CRCF","0","1","1","32","138","24","","10","22","left","8","23","41.5","12"
"6.4.1","Reversal_Task","455","2021-08-30","17:28:43","presentation_left","Experiment_block_rightstart","globe.bmp","90","91","33","151","33","18","22","35","3","Reversal","22","35","0.8000000000000000444","0.2000000000000000111","CRCF","0","1","1","33","139","24","","11","22","left","8","23","41.5","12"
"6.4.1","Reversal_Task","455","2021-08-30","17:28:43","fixation","Experiment_block_rightstart","+","90","91","33","151","33","18","22","35","3","Reversal","22","35","0.8000000000000000444","0.2000000000000000111","CRCF","0","1","1","33","139","25","","11","22","left","9","23","41.5","12.5"
"6.4.1","Reversal_Task","455","2021-08-30","17:28:43","presentation_left","Experiment_block_rightstart","globe.bmp","90","91","33","94","33","18","22","35","3","Reversal","22","35","0.8000000000000000444","0.2000000000000000111","CRCF","0","1","1","34","140","25","","12","22","left","9","23","41.5","12.5"
"6.4.1","Reversal_Task","455","2021-08-30","17:28:43","fixation","Experiment_block_rightstart","+","90","91","33","94","33","18","22","35","3","Reversal","22","35","0.8000000000000000444","0.2000000000000000111","CRCF","0","1","1","34","140","26","","12","22","left","10","23","41.5","13"
"6.4.1","Reversal_Task","455","2021-08-30","17:28:43","presentation_left","Experiment_block_rightstart","globe.bmp","91","91","33","132","33","18","22","35","3","Reversal","22","35","0.8000000000000000444","0.2000000000000000111","CRCF","0","1","1","35","141","26","","13","22","left","10","23","41.5","13"
"6.4.1","Reversal_Task","455","2021-08-30","17:28:43","fixation","Experiment_block_rightstart","+","91","91","33","132","33","18","22","35","3","Reversal","22","35","0.8000000000000000444","0.2000000000000000111","CRCF","0","1","1","35","141","27","","13","22","left","11","23","41.5","13.5"
"6.4.1","Reversal_Task","455","2021-08-30","17:28:43","presentation_left","Experiment_block_rightstart","globe.bmp","92","91","33","144","33","18","22","35","3","Reversal","22","35","0.8000000000000000444","0.2000000000000000111","CRCF","0","1","1","36","142","27","","14","22","left","11","23","41.5","13.5"
"6.4.1","Reversal_Task","455","2021-08-30","17:28:43","fixation","Experiment_block_rightstart","+","92","91","33","144","33","18","22","35","3","Reversal","22","35","0.8000000000000000444","0.2000000000000000111","CRCF","0","1","1","36","142","28","","14","22","left","12","23","41.5","14"
"6.4.1","Reversal_Task","455","2021-08-30","17:28:43","presentation_left","Experiment_block_rightstart","globe.bmp","92","91","33","148","33","18","22","35","3","Reversal","22","35","0.8000000000000000444","0.2000000000000000111","CRCF","0","1","1","37","143","28","","15","22","left","12","23","41.5","14"
"6.4.1","Reversal_Task","455","2021-08-30","17:28:43","fixation","Experiment_block_rightstart","+","92","91","33","148","33","18","22","35","3","Reversal","22","35","0.8000000000000000444","0.2000000000000000111","CRCF","0","1","1","37","143","29","","15","22","left","13","23","41.5","14.5"
"6.4.1","Reversal_Task","455","2021-08-30","17:28:43","presentation_left","Experiment_block_rightstart","globe.bmp","93","91","33","91","33","18","22","35","3","Reversal","22","35","0.8000000000000000444","0.2000000000000000111","CRCF","0","1","1","38","144","29","","16","22","left","13","23","41.5","14.5"
"6.4.1","Reversal_Task","455","2021-08-30","17:28:43","fixation","Experiment_block_rightstart","+","93","91","33","91","33","18","22","35","3","Reversal","22","35","0.8000000000000000444","0.2000000000000000111","CRCF","0","1","1","38","144","30","","16","22","left","14","23","41.5","15"
"6.4.1","Reversal_Task","455","2021-08-30","17:28:43","presentation_left","Experiment_block_rightstart","globe.bmp","93","91","33","81","33","18","22","35","3","Reversal","22","35","0.8000000000000000444","0.2000000000000000111","CRCF","0","1","1","39","145","30","","17","22","left","14","23","41.5","15"
"6.4.1","Reversal_Task","455","2021-08-30","17:28:43","fixation","Experiment_block_rightstart","+","93","91","33","81","33","18","22","35","3","Reversal","22","35","0.8000000000000000444","0.2000000000000000111","CRCF","0","1","1","39","145","31","","17","22","left","15","23","41.5","15.5"
"6.4.1","Reversal_Task","455","2021-08-30","17:28:43","presentation_left","Experiment_block_rightstart","globe.bmp","94","91","33","74","33","18","22","35","3","Reversal","22","35","0.8000000000000000444","0.2000000000000000111","CRCF","0","1","1","40","146","31","","18","22","left","15","23","41.5","15.5"
"6.4.1","Reversal_Task","455","2021-08-30","17:28:43","fixation","Experiment_block_rightstart","+","94","91","33","74","33","18","22","35","3","Reversal","22","35","0.8000000000000000444","0.2000000000000000111","CRCF","0","1","1","40","146","32","","18","22","left","16","23","41.5","16"
"6.4.1","Reversal_Task","455","2021-08-30","17:28:43","presentation_left","Experiment_block_rightstart","globe.bmp","94","91","33","118","33","18","22","35","3","Reversal","22","35","0.8000000000000000444","0.2000000000000000111","CRCF","0","1","1","41","147","32","","19","22","left","16","23","41.5","16"
"6.4.1","Reversal_Task","455","2021-08-30","17:28:43","fixation","Experiment_block_rightstart","+","94","91","33","118","33","18","22","35","3","Reversal","22","35","0.8000000000000000444","0.2000000000000000111","CRCF","0","1","1","41","147","33","","19","22","left","17","23","41.5","16.5"
"6.4.1","Reversal_Task","455","2021-08-30","17:28:43","presentation_left","Experiment_block_rightstart","globe.bmp","94","91","33","119","33","18","22","35","3","Reversal","22","35","0.8000000000000000444","0.2000000000000000111","CRCF","0","1","1","42","148","33","","20","22","left","17","23","41.5","16.5"
"6.4.1","Reversal_Task","455","2021-08-30","17:28:43","fixation","Experiment_block_rightstart","+","94","91","33","119","33","18","22","35","3","Reversal","22","35","0.8000000000000000444","0.2000000000000000111","CRCF","0","1","1","42","148","34","","20","22","left","18","23","41.5","17"
"6.4.1","Reversal_Task","455","2021-08-30","17:28:43","presentation_left","Experiment_block_rightstart","globe.bmp","95","91","33","111","33","18","22","35","3","Reversal","22","35","0.8000000000000000444","0.2000000000000000111","CRCF","0","1","1","43","149","34","","21","22","left","18","23","41.5","17"
"6.4.1","Reversal_Task","455","2021-08-30","17:28:43","fixation","Experiment_block_rightstart","+","95","91","33","111","33","18","22","35","3","Reversal","22","35","0.8000000000000000444","0.2000000000000000111","CRCF","0","1","1","43","149","35","","21","22","left","19","23","41.5","17.5"
"6.4.1","Reversal_Task","455","2021-08-30","17:28:43","presentation_left","Experiment_block_rightstart","globe.bmp","95","91","33","66","33","18","22","35","3","Reversal","22","35","0.8000000000000000444","0.2000000000000000111","CRCF","0","1","1","44","150","35","","22","22","left","19","23","41.5","17.5"
"6.4.1","Reversal_Task","455","2021-08-30","17:28:43","fixation","Experiment_block_rightstart","+","95","91","33","66","33","18","22","35","3","Reversal","22","35","0.8000000000000000444","0.2000000000000000111","CRCF","0","1","1","44","150","36","","22","22","left","20","23","41.5","18"
"6.4.1","Reversal_Task","455","2021-08-30","17:28:43","presentation_left","Experiment_block_rightstart","globe.bmp","95","91","33","88","33","18","22","35","3","Reversal","22","35","0.8000000000000000444","0.2000000000000000111","CRCF","0","1","1","45","151","36","","23","22","left","20","23","41.5","18"
"6.4.1","Reversal_Task","455","2021-08-30","17:28:43","fixation","Experiment_block_rightstart","+","95","91","33","88","33","18","22","35","3","Reversal","22","35","0.8000000000000000444","0.2000000000000000111","CRCF","0","1","1","45","151","37","","23","22","left","21","23","41.5","18.5"
"6.4.1","Reversal_Task","455","2021-08-30","17:28:43","presentation_left","Experiment_block_rightstart","globe.bmp","95","91","33","111","33","18","22","35","3","Reversal","22","35","0.8000000000000000444","0.2000000000000000111","CRCF","0","1","1","46","152","37","","24","22","left","21","23","41.5","18.5"
"6.4.1","Reversal_Task","455","2021-08-30","17:28:43","fixation","Experiment_block_rightstart","+","95","91","33","111","33","18","22","35","3","Reversal","22","35","0.8000000000000000444","0.2000000000000000111","CRCF","0","1","1","46","152","38","","24","22","left","22","23","41.5","19"
"6.4.1","Reversal_Task","455","2021-08-30","17:28:43","presentation_left","Experiment_block_rightstart","globe.bmp","95","91","33","86","33","18","22","35","3","Reversal","22","35","0.8000000000000000444","0.2000000000000000111","CRCF","0","1","1","47","153","38","","25","22","left","22","23","41.5","19"
"6.4.1","Reversal_Task","455","2021-08-30","17:28:43","fixation","Experiment_block_rightstart","+","95","91","33","86","33","18","22","35","3","Reversal","22","35","0.8000000000000000444","0.2000000000000000111","CRCF","0","1","1","47","153","39","","25","22","left","23","23","41.5","19.5"
"6.4.1","Reversal_Task","455","2021-08-30","17:28:43","presentation_left","Experiment_block_rightstart","globe.bmp","96","91","33","95","33","18","22","35","3","Reversal","22","35","0.8000000000000000444","0.2000000000000000111","CRIF","0","1","-1","48","154","39","","26","22","left","23","23","41.5","19.5"
"6.4.1","Reversal_Task","455","2021-08-30","17:28:43","fixation","Experiment_block_rightstart","+","96","91","33","95","33","18","22","35","3","Reversal","22","35","0.8000000000000000444","0.2000000000000000111","CRIF","0","1","-1","48","154","39","","26","22","left","24","23","41.5","19.5"
"6.4.1","Reversal_Task","455","2021-08-30","17:28:43","presentation_left","Experiment_block_rightstart","globe.bmp","96","91","33","75","33","18","22","35","3","Reversal","22","35","0.8000000000000000444","0.2000000000000000111","CRCF","0","1","1","49","155","39","","27","22","left","24","23","41.5","19.5"
"6.4.1","Reversal_Task","455","2021-08-30","17:28:43","fixation","Experiment_block_rightstart","+","96","91","33","75","33","18","22","35","3","Reversal","22","35","0.8000000000000000444","0.2000000000000000111","CRCF","0","1","1","49","155","40","","27","22","left","25","23","41.5","20"
"6.4.1","Reversal_Task","455","2021-08-30","17:28:43","presentation_left","Experiment_block_rightstart","globe.bmp","96","91","33","174","33","18","22","35","3","Reversal","22","35","0.8000000000000000444","0.2000000000000000111","CRCF","0","1","1","50","156","40","","28","22","left","25","23","41.5","20"
"6.4.1","Reversal_Task","455","2021-08-30","17:28:43","fixation","Experiment_block_rightstart","+","96","91","33","174","33","18","22","35","4","Reversal","22","35","0.8000000000000000444","0.2000000000000000111","CRCF","0","1","1","50","156","41","","28","22","left","26","23","41.5","20.5"
"6.4.1","Reversal_Task","455","2021-08-30","17:28:43","reset_trial","Experiment_block_rightstart","Press SPACE to continue","96","91","33","174","33","18","22","35","4","Reversal","22","35","0.8000000000000000444","0.2000000000000000111","CRCF","0","1","1","50","156","41","","0","0","left","26","31","41.5","20.5"
"6.4.1","Reversal_Task","455","2021-08-30","17:28:43","presentation_right","Experiment_block_rightstart","tree.bmp","96","0","33","174","33","727","24","12","4","Acquisiton","24","12","0.2000000000000000111","0.8000000000000000444","IRIF","0","-1","1","1","157","0","","1","0","right","26","31","62","0"
"6.4.1","Reversal_Task","455","2021-08-30","17:28:43","fixation","Experiment_block_rightstart","+","96","0","33","174","33","727","24","12","4","Acquisiton","24","12","0.2000000000000000111","0.8000000000000000444","IRIF","0","-1","1","1","157","0","","1","0","right","0","31","62","0"
"6.4.1","Reversal_Task","455","2021-08-30","17:28:43","presentation_right","Experiment_block_rightstart","tree.bmp","96","0","33","174","33","23","24","12","4","Acquisiton","24","12","0.2000000000000000111","0.8000000000000000444","IRIF","0","-1","1","2","158","0","","2","0","right","0","31","62","0"
"6.4.1","Reversal_Task","455","2021-08-30","17:28:43","fixation","Experiment_block_rightstart","+","96","0","33","174","33","23","24","12","4","Acquisiton","24","12","0.2000000000000000111","0.8000000000000000444","IRIF","0","-1","1","2","158","0","","2","0","right","0","31","62","0"
"6.4.1","Reversal_Task","455","2021-08-30","17:28:43","presentation_right","Experiment_block_rightstart","tree.bmp","96","33","33","174","36","54","24","12","4","Acquisiton","24","12","0.2000000000000000111","0.8000000000000000444","CRCF","0","1","1","3","159","0","","2","1","right","0","31","62","0"
"6.4.1","Reversal_Task","455","2021-08-30","17:28:43","fixation","Experiment_block_rightstart","+","96","33","33","174","36","54","24","12","4","Acquisiton","24","12","0.2000000000000000111","0.8000000000000000444","CRCF","0","1","1","3","159","1","","2","1","right","1","31","62","0.5"
"6.4.1","Reversal_Task","455","2021-08-30","17:28:43","presentation_right","Experiment_block_rightstart","tree.bmp","96","50","33","174","36","104","24","12","4","Acquisiton","24","12","0.2000000000000000111","0.8000000000000000444","CRCF","0","1","1","4","160","1","","2","2","right","1","31","62","0.5"
"6.4.1","Reversal_Task","455","2021-08-30","17:28:43","fixation","Experiment_block_rightstart","+","96","50","33","174","36","104","24","12","4","Acquisiton","24","12","0.2000000000000000111","0.8000000000000000444","CRCF","0","1","1","4","160","2","","2","2","right","2","31","62","1"
"6.4.1","Reversal_Task","455","2021-08-30","17:28:43","presentation_right","Experiment_block_rightstart","tree.bmp","96","60","33","174","36","36","24","12","4","Acquisiton","24","12","0.2000000000000000111","0.8000000000000000444","CRCF","0","1","1","5","161","2","","2","3","right","2","31","62","1"
"6.4.1","Reversal_Task","455","2021-08-30","17:28:43","fixation","Experiment_block_rightstart","+","96","60","33","174","36","36","24","12","4","Acquisiton","24","12","0.2000000000000000111","0.8000000000000000444","CRCF","0","1","1","5","161","3","","2","3","right","3","31","62","1.5"
"6.4.1","Reversal_Task","455","2021-08-30","17:28:43","presentation_right","Experiment_block_rightstart","tree.bmp","96","66","33","174","36","69","24","12","4","Acquisiton","24","12","0.2000000000000000111","0.8000000000000000444","CRCF","0","1","1","6","162","3","","2","4","right","3","31","62","1.5"
"6.4.1","Reversal_Task","455","2021-08-30","17:28:43","fixation","Experiment_block_rightstart","+","96","66","33","174","36","69","24","12","4","Acquisiton","24","12","0.2000000000000000111","0.8000000000000000444","CRCF","0","1","1","6","162","4","","2","4","right","4","31","62","2"
"6.4.1","Reversal_Task","455","2021-08-30","17:28:43","presentation_right","Experiment_block_rightstart","tree.bmp","96","71","33","174","36","74","24","12","4","Acquisiton","24","12","0.2000000000000000111","0.8000000000000000444","CRCF","0","1","1","7","163","4","","2","5","right","4","31","62","2"
"6.4.1","Reversal_Task","455","2021-08-30","17:28:43","fixation","Experiment_block_rightstart","+","96","71","33","174","36","74","24","12","4","Acquisiton","24","12","0.2000000000000000111","0.8000000000000000444","CRCF","0","1","1","7","163","5","","2","5","right","5","31","62","2.5"
"6.4.1","Reversal_Task","455","2021-08-30","17:28:43","presentation_right","Experiment_block_rightstart","tree.bmp","96","75","33","174","36","71","24","12","4","Acquisiton","24","12","0.2000000000000000111","0.8000000000000000444","CRCF","0","1","1","8","164","5","","2","6","right","5","31","62","2.5"
"6.4.1","Reversal_Task","455","2021-08-30","17:28:43","fixation","Experiment_block_rightstart","+","96","75","33","174","36","71","24","12","4","Acquisiton","24","12","0.2000000000000000111","0.8000000000000000444","CRCF","0","1","1","8","164","6","","2","6","right","6","31","62","3"
"6.4.1","Reversal_Task","455","2021-08-30","17:28:43","presentation_right","Experiment_block_rightstart","tree.bmp","96","77","33","174","36","97","24","12","4","Acquisiton","24","12","0.2000000000000000111","0.8000000000000000444","CRCF","0","1","1","9","165","6","","2","7","right","6","31","62","3"
"6.4.1","Reversal_Task","455","2021-08-30","17:28:43","fixation","Experiment_block_rightstart","+","96","77","33","174","36","97","24","12","4","Acquisiton","24","12","0.2000000000000000111","0.8000000000000000444","CRCF","0","1","1","9","165","7","","2","7","right","7","31","62","3.5"
"6.4.1","Reversal_Task","455","2021-08-30","17:28:43","presentation_right","Experiment_block_rightstart","tree.bmp","96","80","33","174","36","154","24","12","4","Acquisiton","24","12","0.2000000000000000111","0.8000000000000000444","CRCF","0","1","1","10","166","7","","2","8","right","7","31","62","3.5"
"6.4.1","Reversal_Task","455","2021-08-30","17:28:43","fixation","Experiment_block_rightstart","+","96","80","33","174","36","154","24","12","4","Acquisiton","24","12","0.2000000000000000111","0.8000000000000000444","CRCF","0","1","1","10","166","8","","2","8","right","8","31","62","4"
"6.4.1","Reversal_Task","455","2021-08-30","17:28:43","presentation_right","Experiment_block_rightstart","tree.bmp","96","81","33","174","36","424","24","12","4","Acquisiton","24","12","0.2000000000000000111","0.8000000000000000444","CRCF","0","1","1","11","167","8","","2","9","right","8","31","62","4"
"6.4.1","Reversal_Task","455","2021-08-30","17:28:43","fixation","Experiment_block_rightstart","+","96","81","33","174","36","424","24","12","4","Acquisiton","24","12","0.2000000000000000111","0.8000000000000000444","CRCF","0","1","1","11","167","9","","2","9","right","9","31","62","4.5"
"6.4.1","Reversal_Task","455","2021-08-30","17:28:43","presentation_right","Experiment_block_rightstart","tree.bmp","96","83","33","174","36","80","24","12","4","Acquisiton","24","12","0.2000000000000000111","0.8000000000000000444","CRCF","0","1","1","12","168","9","","2","10","right","9","31","62","4.5"
"6.4.1","Reversal_Task","455","2021-08-30","17:28:43","fixation","Experiment_block_rightstart","+","96","83","33","174","36","80","24","12","4","Acquisiton","24","12","0.2000000000000000111","0.8000000000000000444","CRCF","0","1","1","12","168","10","","2","10","right","10","31","62","5"
"6.4.1","Reversal_Task","455","2021-08-30","17:28:43","presentation_right","Experiment_block_rightstart","tree.bmp","96","84","33","174","36","21","24","12","4","Acquisiton","24","12","0.2000000000000000111","0.8000000000000000444","CRCF","0","1","1","13","169","10","","2","11","right","10","31","62","5"
"6.4.1","Reversal_Task","455","2021-08-30","17:28:43","fixation","Experiment_block_rightstart","+","96","84","33","174","36","21","24","12","4","Acquisiton","24","12","0.2000000000000000111","0.8000000000000000444","CRCF","0","1","1","13","169","11","","2","11","right","11","31","62","5.5"
"6.4.1","Reversal_Task","455","2021-08-30","17:28:43","presentation_right","Experiment_block_rightstart","tree.bmp","96","85","33","174","36","81","24","12","4","Acquisiton","24","12","0.2000000000000000111","0.8000000000000000444","CRCF","0","1","1","14","170","11","","2","12","right","11","31","62","5.5"
"6.4.1","Reversal_Task","455","2021-08-30","17:28:43","fixation","Experiment_block_rightstart","+","96","85","33","174","36","81","24","12","4","Acquisiton","24","12","0.2000000000000000111","0.8000000000000000444","CRCF","0","1","1","14","170","12","","2","12","right","12","31","62","6"
