"build","experimentName","subject","date","time","trialcode","blockcode","stimulusitem1","trial.presentation_left.percentcorrect","trial.presentation_right.percentcorrect","trial.presentation_left.response","trial.presentation_left.latency","trial.presentation_right.response","trial.presentation_right.latency","rt","picture.Left.currentvalue","picture.Right.currentvalue","block_number","task_phase","LeftStimSelected","RightStimSelected","percentTrialsCorrectFeedback_left","percentTrialsCorrectFeedback_right","responseAndFeedbackCategory","isThisTrialPractice","isResponseCorrect","isFeedbackAccurate","trial_number","total_trialnum","numbercorrectfeedback","totalcorrect","numberoftimesleft","numberoftimesright","rightleftcorrect","consecutivecorrect","reversalnumber","totalearnings","centsearned"
"6.4.2","Reversal_Task","1","2021-09-22","11:07:15","presentation_left","Experiment_block_leftstart","lamb.bmp","100","100","33","376","36","120","376","25","26","1","Acquisiton","25","26","0.8000000000000000444","0.2000000000000000111","CRCF","0","1","1","1","1","0","6","1","0","left","0","20","0","0"
"6.4.2","Reversal_Task","1","2021-09-22","11:07:15","fixation","Experiment_block_leftstart","+","100","100","33","376","36","120","376","25","26","1","Acquisiton","25","26","0.8000000000000000444","0.2000000000000000111","CRCF","0","1","1","1","1","1","6","1","0","left","1","20","0.5","0.5"
"6.4.2","Reversal_Task","1","2021-09-22","11:07:15","presentation_left","Experiment_block_leftstart","lamb.bmp","100","100","33","379","36","120","379","25","26","1","Acquisiton","25","26","0.8000000000000000444","0.2000000000000000111","CRCF","0","1","1","2","2","1","6","2","0","left","1","20","0.5","0.5"
"6.4.2","Reversal_Task","1","2021-09-22","11:07:15","fixation","Experiment_block_leftstart","+","100","100","33","379","36","120","379","25","26","1","Acquisiton","25","26","0.8000000000000000444","0.2000000000000000111","CRCF","0","1","1","2","2","2","6","2","0","left","2","20","1","1"
"6.4.2","Reversal_Task","1","2021-09-22","11:07:15","presentation_left","Experiment_block_leftstart","lamb.bmp","100","100","33","96","36","120","96","25","26","1","Acquisiton","25","26","0.8000000000000000444","0.2000000000000000111","CRIF","0","1","-1","3","3","2","6","3","0","left","2","20","1","1"
"6.4.2","Reversal_Task","1","2021-09-22","11:07:15","fixation","Experiment_block_leftstart","+","100","100","33","96","36","120","96","25","26","1","Acquisiton","25","26","0.8000000000000000444","0.2000000000000000111","CRIF","0","1","-1","3","3","2","6","3","0","left","3","20","1","1"
"6.4.2","Reversal_Task","1","2021-09-22","11:07:15","presentation_left","Experiment_block_leftstart","lamb.bmp","100","100","33","119","36","120","119","25","26","1","Acquisiton","25","26","0.8000000000000000444","0.2000000000000000111","CRCF","0","1","1","4","4","2","6","4","0","left","3","20","1","1"
"6.4.2","Reversal_Task","1","2021-09-22","11:07:15","fixation","Experiment_block_leftstart","+","100","100","33","119","36","120","119","25","26","1","Acquisiton","25","26","0.8000000000000000444","0.2000000000000000111","CRCF","0","1","1","4","4","3","6","4","0","left","4","20","1.5","1.5"
"6.4.2","Reversal_Task","1","2021-09-22","11:07:15","presentation_left","Experiment_block_leftstart","lamb.bmp","100","100","33","101","36","120","101","25","26","1","Acquisiton","25","26","0.8000000000000000444","0.2000000000000000111","CRCF","0","1","1","5","5","3","6","5","0","left","4","20","1.5","1.5"
"6.4.2","Reversal_Task","1","2021-09-22","11:07:15","fixation","Experiment_block_leftstart","+","100","100","33","101","36","120","101","25","26","1","Acquisiton","25","26","0.8000000000000000444","0.2000000000000000111","CRCF","0","1","1","5","5","4","6","5","0","left","5","20","2","2"
"6.4.2","Reversal_Task","1","2021-09-22","11:07:15","presentation_left","Experiment_block_leftstart","lamb.bmp","100","100","33","44","36","120","44","25","26","1","Acquisiton","25","26","0.8000000000000000444","0.2000000000000000111","CRCF","0","1","1","6","6","4","6","6","0","left","5","20","2","2"
"6.4.2","Reversal_Task","1","2021-09-22","11:07:15","fixation","Experiment_block_leftstart","+","100","100","33","44","36","120","44","25","26","1","Acquisiton","25","26","0.8000000000000000444","0.2000000000000000111","CRCF","0","1","1","6","6","5","6","6","0","left","6","20","2.5","2.5"
"6.4.2","Reversal_Task","1","2021-09-22","11:07:15","presentation_left","Experiment_block_leftstart","lamb.bmp","100","100","33","69","36","120","69","25","26","1","Acquisiton","25","26","0.8000000000000000444","0.2000000000000000111","CRCF","0","1","1","7","7","5","6","7","0","left","6","20","2.5","2.5"
"6.4.2","Reversal_Task","1","2021-09-22","11:07:15","fixation","Experiment_block_leftstart","+","100","100","33","69","36","120","69","25","26","1","Acquisiton","25","26","0.8000000000000000444","0.2000000000000000111","CRCF","0","1","1","7","7","6","6","7","0","left","7","20","3","3"
"6.4.2","Reversal_Task","1","2021-09-22","11:07:15","presentation_left","Experiment_block_leftstart","lamb.bmp","100","100","33","68","36","120","68","25","26","1","Acquisiton","25","26","0.8000000000000000444","0.2000000000000000111","CRCF","0","1","1","8","8","6","6","8","0","left","7","20","3","3"
"6.4.2","Reversal_Task","1","2021-09-22","11:07:15","fixation","Experiment_block_leftstart","+","100","100","33","68","36","120","68","25","26","1","Acquisiton","25","26","0.8000000000000000444","0.2000000000000000111","CRCF","0","1","1","8","8","7","6","8","0","left","8","20","3.5","3.5"
"6.4.2","Reversal_Task","1","2021-09-22","11:07:15","presentation_left","Experiment_block_leftstart","lamb.bmp","100","100","33","174","36","120","174","25","26","1","Acquisiton","25","26","0.8000000000000000444","0.2000000000000000111","CRCF","0","1","1","9","9","7","6","9","0","left","8","20","3.5","3.5"
"6.4.2","Reversal_Task","1","2021-09-22","11:07:15","fixation","Experiment_block_leftstart","+","100","100","33","174","36","120","174","25","26","1","Acquisiton","25","26","0.8000000000000000444","0.2000000000000000111","CRCF","0","1","1","9","9","8","6","9","0","left","9","20","4","4"
"6.4.2","Reversal_Task","1","2021-09-22","11:07:15","presentation_left","Experiment_block_leftstart","lamb.bmp","100","100","33","1","36","120","1","25","26","1","Acquisiton","25","26","0.8000000000000000444","0.2000000000000000111","CRCF","0","1","1","10","10","8","6","10","0","left","9","20","4","4"
"6.4.2","Reversal_Task","1","2021-09-22","11:07:15","fixation","Experiment_block_leftstart","+","100","100","33","1","36","120","1","25","26","1","Acquisiton","25","26","0.8000000000000000444","0.2000000000000000111","CRCF","0","1","1","10","10","9","6","10","0","left","10","20","4.5","4.5"
"6.4.2","Reversal_Task","1","2021-09-22","11:07:15","presentation_left","Experiment_block_leftstart","lamb.bmp","100","100","33","84","36","120","84","25","26","1","Acquisiton","25","26","0.8000000000000000444","0.2000000000000000111","CRCF","0","1","1","11","11","9","6","11","0","left","10","20","4.5","4.5"
"6.4.2","Reversal_Task","1","2021-09-22","11:07:15","fixation","Experiment_block_leftstart","+","100","100","33","84","36","120","84","25","26","1","Acquisiton","25","26","0.8000000000000000444","0.2000000000000000111","CRCF","0","1","1","11","11","10","6","11","0","left","11","20","5","5"
"6.4.2","Reversal_Task","1","2021-09-22","11:07:15","presentation_left","Experiment_block_leftstart","lamb.bmp","100","100","33","44","36","120","44","25","26","1","Acquisiton","25","26","0.8000000000000000444","0.2000000000000000111","CRCF","0","1","1","12","12","10","6","12","0","left","11","20","5","5"
"6.4.2","Reversal_Task","1","2021-09-22","11:07:15","fixation","Experiment_block_leftstart","+","100","100","33","44","36","120","44","25","26","1","Acquisiton","25","26","0.8000000000000000444","0.2000000000000000111","CRCF","0","1","1","12","12","11","6","12","0","left","12","20","5.5","5.5"
"6.4.2","Reversal_Task","1","2021-09-22","11:07:15","presentation_left","Experiment_block_leftstart","lamb.bmp","100","100","33","99","36","120","99","25","26","1","Acquisiton","25","26","0.8000000000000000444","0.2000000000000000111","CRIF","0","1","-1","13","13","11","6","13","0","left","12","20","5.5","5.5"
"6.4.2","Reversal_Task","1","2021-09-22","11:07:15","fixation","Experiment_block_leftstart","+","100","100","33","99","36","120","99","25","26","1","Acquisiton","25","26","0.8000000000000000444","0.2000000000000000111","CRIF","0","1","-1","13","13","11","6","13","0","left","13","20","5.5","5.5"
"6.4.2","Reversal_Task","1","2021-09-22","11:07:15","presentation_left","Experiment_block_leftstart","lamb.bmp","100","100","33","84","36","120","84","25","26","1","Acquisiton","25","26","0.8000000000000000444","0.2000000000000000111","CRCF","0","1","1","14","14","11","6","14","0","left","13","20","5.5","5.5"
"6.4.2","Reversal_Task","1","2021-09-22","11:07:15","fixation","Experiment_block_leftstart","+","100","100","33","84","36","120","84","25","26","1","Acquisiton","25","26","0.8000000000000000444","0.2000000000000000111","CRCF","0","1","1","14","14","12","6","14","0","left","14","20","6","6"
"6.4.2","Reversal_Task","1","2021-09-22","11:07:15","presentation_left","Experiment_block_leftstart","lamb.bmp","100","100","33","180","36","120","180","25","26","1","Acquisiton","25","26","0.8000000000000000444","0.2000000000000000111","CRIF","0","1","-1","15","15","12","6","15","0","left","14","20","6","6"
"6.4.2","Reversal_Task","1","2021-09-22","11:07:15","fixation","Experiment_block_leftstart","+","100","100","33","180","36","120","180","25","26","1","Acquisiton","25","26","0.8000000000000000444","0.2000000000000000111","CRIF","0","1","-1","15","15","12","6","15","0","left","15","20","6","6"
"6.4.2","Reversal_Task","1","2021-09-22","11:07:15","presentation_left","Experiment_block_leftstart","lamb.bmp","100","100","33","39","36","120","39","25","26","1","Acquisiton","25","26","0.8000000000000000444","0.2000000000000000111","CRIF","0","1","-1","16","16","12","6","16","0","left","15","20","6","6"
"6.4.2","Reversal_Task","1","2021-09-22","11:07:15","fixation","Experiment_block_leftstart","+","100","100","33","39","36","120","39","25","26","1","Acquisiton","25","26","0.8000000000000000444","0.2000000000000000111","CRIF","0","1","-1","16","16","12","6","16","0","left","16","20","6","6"
"6.4.2","Reversal_Task","1","2021-09-22","11:07:15","presentation_left","Experiment_block_leftstart","lamb.bmp","100","100","33","104","36","120","104","25","26","1","Acquisiton","25","26","0.8000000000000000444","0.2000000000000000111","CRIF","0","1","-1","17","17","12","6","17","0","left","16","20","6","6"
"6.4.2","Reversal_Task","1","2021-09-22","11:07:15","fixation","Experiment_block_leftstart","+","100","100","33","104","36","120","104","25","26","1","Acquisiton","25","26","0.8000000000000000444","0.2000000000000000111","CRIF","0","1","-1","17","17","12","6","17","0","left","17","20","6","6"
"6.4.2","Reversal_Task","1","2021-09-22","11:07:15","presentation_left","Experiment_block_leftstart","lamb.bmp","100","100","33","70","36","120","70","25","26","1","Acquisiton","25","26","0.8000000000000000444","0.2000000000000000111","CRCF","0","1","1","18","18","12","6","18","0","left","17","20","6","6"
"6.4.2","Reversal_Task","1","2021-09-22","11:07:15","fixation","Experiment_block_leftstart","+","100","100","33","70","36","120","70","25","26","1","Acquisiton","25","26","0.8000000000000000444","0.2000000000000000111","CRCF","0","1","1","18","18","13","6","18","0","left","18","20","6.5","6.5"
"6.4.2","Reversal_Task","1","2021-09-22","11:07:15","presentation_left","Experiment_block_leftstart","lamb.bmp","100","100","33","95","36","120","95","25","26","1","Acquisiton","25","26","0.8000000000000000444","0.2000000000000000111","CRCF","0","1","1","19","19","13","6","19","0","left","18","20","6.5","6.5"
"6.4.2","Reversal_Task","1","2021-09-22","11:07:15","fixation","Experiment_block_leftstart","+","100","100","33","95","36","120","95","25","26","1","Acquisiton","25","26","0.8000000000000000444","0.2000000000000000111","CRCF","0","1","1","19","19","14","6","19","0","left","19","20","7","7"
"6.4.2","Reversal_Task","1","2021-09-22","11:07:15","presentation_left","Experiment_block_leftstart","lamb.bmp","100","100","33","54","36","120","54","25","26","1","Acquisiton","25","26","0.8000000000000000444","0.2000000000000000111","CRCF","0","1","1","20","20","14","6","20","0","left","19","20","7","7"
"6.4.2","Reversal_Task","1","2021-09-22","11:07:15","fixation","Experiment_block_leftstart","+","100","100","33","54","36","120","54","25","26","1","Acquisiton","25","26","0.8000000000000000444","0.2000000000000000111","CRCF","0","1","1","20","20","15","6","20","0","left","20","20","7.5","7.5"
"6.4.2","Reversal_Task","1","2021-09-22","11:07:15","presentation_right","Experiment_block_leftstart","lamb.bmp","100","0","33","54","33","95","95","25","26","1","Reversal","25","26","0.2000000000000000111","0.8000000000000000444","IRIF","0","-1","1","21","21","15","6","21","0","right","20","20","7.5","7.5"
"6.4.2","Reversal_Task","1","2021-09-22","11:07:15","fixation","Experiment_block_leftstart","+","100","0","33","54","33","95","95","25","26","1","Reversal","25","26","0.2000000000000000111","0.8000000000000000444","IRIF","0","-1","1","21","21","15","6","21","0","right","0","20","7.5","7.5"
"6.4.2","Reversal_Task","1","2021-09-22","11:07:15","presentation_right","Experiment_block_leftstart","lamb.bmp","100","0","33","54","33","102","102","25","26","1","Reversal","25","26","0.2000000000000000111","0.8000000000000000444","IRCF","0","-1","-1","22","22","15","6","22","0","right","0","20","7.5","7.5"
"6.4.2","Reversal_Task","1","2021-09-22","11:07:15","fixation","Experiment_block_leftstart","+","100","0","33","54","33","102","102","25","26","1","Reversal","25","26","0.2000000000000000111","0.8000000000000000444","IRCF","0","-1","-1","22","22","16","6","22","0","right","0","20","8","8"
"6.4.2","Reversal_Task","1","2021-09-22","11:07:15","presentation_right","Experiment_block_leftstart","lamb.bmp","100","0","33","54","33","114","114","25","26","1","Reversal","25","26","0.2000000000000000111","0.8000000000000000444","IRCF","0","-1","-1","23","23","16","6","23","0","right","0","20","8","8"
"6.4.2","Reversal_Task","1","2021-09-22","11:07:15","fixation","Experiment_block_leftstart","+","100","0","33","54","33","114","114","25","26","1","Reversal","25","26","0.2000000000000000111","0.8000000000000000444","IRCF","0","-1","-1","23","23","17","6","23","0","right","0","20","8.5","8.5"
"6.4.2","Reversal_Task","1","2021-09-22","11:07:15","presentation_right","Experiment_block_leftstart","lamb.bmp","100","0","33","54","33","40","40","25","26","1","Reversal","25","26","0.2000000000000000111","0.8000000000000000444","IRIF","0","-1","1","24","24","17","6","24","0","right","0","20","8.5","8.5"
"6.4.2","Reversal_Task","1","2021-09-22","11:07:15","fixation","Experiment_block_leftstart","+","100","0","33","54","33","40","40","25","26","1","Reversal","25","26","0.2000000000000000111","0.8000000000000000444","IRIF","0","-1","1","24","24","17","6","24","0","right","0","20","8.5","8.5"
"6.4.2","Reversal_Task","1","2021-09-22","11:07:15","presentation_right","Experiment_block_leftstart","lamb.bmp","100","0","33","54","33","49","49","25","26","1","Reversal","25","26","0.2000000000000000111","0.8000000000000000444","IRIF","0","-1","1","25","25","17","6","25","0","right","0","20","8.5","8.5"
"6.4.2","Reversal_Task","1","2021-09-22","11:07:15","fixation","Experiment_block_leftstart","+","100","0","33","54","33","49","49","25","26","1","Reversal","25","26","0.2000000000000000111","0.8000000000000000444","IRIF","0","-1","1","25","25","17","6","25","0","right","0","20","8.5","8.5"
"6.4.2","Reversal_Task","1","2021-09-22","11:07:15","presentation_right","Experiment_block_leftstart","lamb.bmp","100","0","33","54","33","91","91","25","26","1","Reversal","25","26","0.2000000000000000111","0.8000000000000000444","IRIF","0","-1","1","26","26","17","6","26","0","right","0","20","8.5","8.5"
"6.4.2","Reversal_Task","1","2021-09-22","11:07:15","fixation","Experiment_block_leftstart","+","100","0","33","54","33","91","91","25","26","1","Reversal","25","26","0.2000000000000000111","0.8000000000000000444","IRIF","0","-1","1","26","26","17","6","26","0","right","0","20","8.5","8.5"
"6.4.2","Reversal_Task","1","2021-09-22","11:07:15","presentation_right","Experiment_block_leftstart","lamb.bmp","100","0","33","54","33","80","80","25","26","1","Reversal","25","26","0.2000000000000000111","0.8000000000000000444","IRCF","0","-1","-1","27","27","17","6","27","0","right","0","20","8.5","8.5"
"6.4.2","Reversal_Task","1","2021-09-22","11:07:15","fixation","Experiment_block_leftstart","+","100","0","33","54","33","80","80","25","26","1","Reversal","25","26","0.2000000000000000111","0.8000000000000000444","IRCF","0","-1","-1","27","27","18","6","27","0","right","0","20","9","9"
"6.4.2","Reversal_Task","1","2021-09-22","11:07:15","presentation_right","Experiment_block_leftstart","lamb.bmp","100","0","33","54","33","67","67","25","26","1","Reversal","25","26","0.2000000000000000111","0.8000000000000000444","IRIF","0","-1","1","28","28","18","6","28","0","right","0","20","9","9"
"6.4.2","Reversal_Task","1","2021-09-22","11:07:15","fixation","Experiment_block_leftstart","+","100","0","33","54","33","67","67","25","26","1","Reversal","25","26","0.2000000000000000111","0.8000000000000000444","IRIF","0","-1","1","28","28","18","6","28","0","right","0","20","9","9"
"6.4.2","Reversal_Task","1","2021-09-22","11:07:15","presentation_right","Experiment_block_leftstart","lamb.bmp","100","0","33","54","33","98","98","25","26","1","Reversal","25","26","0.2000000000000000111","0.8000000000000000444","IRIF","0","-1","1","29","29","18","6","29","0","right","0","20","9","9"
"6.4.2","Reversal_Task","1","2021-09-22","11:07:15","fixation","Experiment_block_leftstart","+","100","0","33","54","33","98","98","25","26","1","Reversal","25","26","0.2000000000000000111","0.8000000000000000444","IRIF","0","-1","1","29","29","18","6","29","0","right","0","20","9","9"
"6.4.2","Reversal_Task","1","2021-09-22","11:07:15","presentation_right","Experiment_block_leftstart","lamb.bmp","100","0","33","54","33","65","65","25","26","1","Reversal","25","26","0.2000000000000000111","0.8000000000000000444","IRIF","0","-1","1","30","30","18","6","30","0","right","0","20","9","9"
"6.4.2","Reversal_Task","1","2021-09-22","11:07:15","fixation","Experiment_block_leftstart","+","100","0","33","54","33","65","65","25","26","1","Reversal","25","26","0.2000000000000000111","0.8000000000000000444","IRIF","0","-1","1","30","30","18","6","30","0","right","0","20","9","9"
"6.4.2","Reversal_Task","1","2021-09-22","11:07:15","presentation_right","Experiment_block_leftstart","lamb.bmp","100","0","33","54","33","121","121","25","26","1","Reversal","25","26","0.2000000000000000111","0.8000000000000000444","IRIF","0","-1","1","31","31","18","6","31","0","right","0","20","9","9"
"6.4.2","Reversal_Task","1","2021-09-22","11:07:15","fixation","Experiment_block_leftstart","+","100","0","33","54","33","121","121","25","26","1","Reversal","25","26","0.2000000000000000111","0.8000000000000000444","IRIF","0","-1","1","31","31","18","6","31","0","right","0","20","9","9"
"6.4.2","Reversal_Task","1","2021-09-22","11:07:15","presentation_right","Experiment_block_leftstart","lamb.bmp","100","0","33","54","33","80","80","25","26","1","Reversal","25","26","0.2000000000000000111","0.8000000000000000444","IRCF","0","-1","-1","32","32","18","6","32","0","right","0","20","9","9"
"6.4.2","Reversal_Task","1","2021-09-22","11:07:15","fixation","Experiment_block_leftstart","+","100","0","33","54","33","80","80","25","26","1","Reversal","25","26","0.2000000000000000111","0.8000000000000000444","IRCF","0","-1","-1","32","32","19","6","32","0","right","0","20","9.5","9.5"
"6.4.2","Reversal_Task","1","2021-09-22","11:07:15","presentation_right","Experiment_block_leftstart","lamb.bmp","100","0","33","54","33","88","88","25","26","1","Reversal","25","26","0.2000000000000000111","0.8000000000000000444","IRCF","0","-1","-1","33","33","19","6","33","0","right","0","20","9.5","9.5"
"6.4.2","Reversal_Task","1","2021-09-22","11:07:15","fixation","Experiment_block_leftstart","+","100","0","33","54","33","88","88","25","26","1","Reversal","25","26","0.2000000000000000111","0.8000000000000000444","IRCF","0","-1","-1","33","33","20","6","33","0","right","0","20","10","10"
"6.4.2","Reversal_Task","1","2021-09-22","11:07:15","presentation_right","Experiment_block_leftstart","lamb.bmp","100","0","33","54","33","39","39","25","26","1","Reversal","25","26","0.2000000000000000111","0.8000000000000000444","IRIF","0","-1","1","34","34","20","6","34","0","right","0","20","10","10"
"6.4.2","Reversal_Task","1","2021-09-22","11:07:15","fixation","Experiment_block_leftstart","+","100","0","33","54","33","39","39","25","26","1","Reversal","25","26","0.2000000000000000111","0.8000000000000000444","IRIF","0","-1","1","34","34","20","6","34","0","right","0","20","10","10"
"6.4.2","Reversal_Task","1","2021-09-22","11:07:15","presentation_right","Experiment_block_leftstart","lamb.bmp","100","0","33","54","33","72","72","25","26","1","Reversal","25","26","0.2000000000000000111","0.8000000000000000444","IRIF","0","-1","1","35","35","20","6","35","0","right","0","20","10","10"
"6.4.2","Reversal_Task","1","2021-09-22","11:07:15","fixation","Experiment_block_leftstart","+","100","0","33","54","33","72","72","25","26","1","Reversal","25","26","0.2000000000000000111","0.8000000000000000444","IRIF","0","-1","1","35","35","20","6","35","0","right","0","20","10","10"
"6.4.2","Reversal_Task","1","2021-09-22","11:07:15","presentation_right","Experiment_block_leftstart","lamb.bmp","100","6","33","54","36","24","24","25","26","1","Reversal","25","26","0.2000000000000000111","0.8000000000000000444","CRCF","0","1","1","36","36","20","6","35","1","right","0","20","10","10"
"6.4.2","Reversal_Task","1","2021-09-22","11:07:15","fixation","Experiment_block_leftstart","+","100","6","33","54","36","24","24","25","26","1","Reversal","25","26","0.2000000000000000111","0.8000000000000000444","CRCF","0","1","1","36","36","21","6","35","1","right","1","20","10.5","10.5"
"6.4.2","Reversal_Task","1","2021-09-22","11:07:15","presentation_right","Experiment_block_leftstart","lamb.bmp","100","11","33","54","36","138","138","25","26","1","Reversal","25","26","0.2000000000000000111","0.8000000000000000444","CRCF","0","1","1","37","37","21","6","35","2","right","1","20","10.5","10.5"
"6.4.2","Reversal_Task","1","2021-09-22","11:07:15","fixation","Experiment_block_leftstart","+","100","11","33","54","36","138","138","25","26","1","Reversal","25","26","0.2000000000000000111","0.8000000000000000444","CRCF","0","1","1","37","37","22","6","35","2","right","2","20","11","11"
"6.4.2","Reversal_Task","1","2021-09-22","11:07:15","presentation_right","Experiment_block_leftstart","lamb.bmp","100","16","33","54","36","81","81","25","26","1","Reversal","25","26","0.2000000000000000111","0.8000000000000000444","CRCF","0","1","1","38","38","22","6","35","3","right","2","20","11","11"
"6.4.2","Reversal_Task","1","2021-09-22","11:07:15","fixation","Experiment_block_leftstart","+","100","16","33","54","36","81","81","25","26","1","Reversal","25","26","0.2000000000000000111","0.8000000000000000444","CRCF","0","1","1","38","38","23","6","35","3","right","3","20","11.5","11.5"
"6.4.2","Reversal_Task","1","2021-09-22","11:07:15","presentation_right","Experiment_block_leftstart","lamb.bmp","100","21","33","54","36","32","32","25","26","1","Reversal","25","26","0.2000000000000000111","0.8000000000000000444","CRCF","0","1","1","39","39","23","6","35","4","right","3","20","11.5","11.5"
"6.4.2","Reversal_Task","1","2021-09-22","11:07:15","fixation","Experiment_block_leftstart","+","100","21","33","54","36","32","32","25","26","1","Reversal","25","26","0.2000000000000000111","0.8000000000000000444","CRCF","0","1","1","39","39","24","6","35","4","right","4","20","12","12"
"6.4.2","Reversal_Task","1","2021-09-22","11:07:15","presentation_right","Experiment_block_leftstart","lamb.bmp","100","25","33","54","36","95","95","25","26","1","Reversal","25","26","0.2000000000000000111","0.8000000000000000444","CRCF","0","1","1","40","40","24","6","35","5","right","4","20","12","12"
"6.4.2","Reversal_Task","1","2021-09-22","11:07:15","fixation","Experiment_block_leftstart","+","100","25","33","54","36","95","95","25","26","1","Reversal","25","26","0.2000000000000000111","0.8000000000000000444","CRCF","0","1","1","40","40","25","6","35","5","right","5","20","12.5","12.5"
"6.4.2","Reversal_Task","1","2021-09-22","11:07:15","presentation_right","Experiment_block_leftstart","lamb.bmp","100","28","33","54","36","114","114","25","26","1","Reversal","25","26","0.2000000000000000111","0.8000000000000000444","CRCF","0","1","1","41","41","25","6","35","6","right","5","20","12.5","12.5"
"6.4.2","Reversal_Task","1","2021-09-22","11:07:15","fixation","Experiment_block_leftstart","+","100","28","33","54","36","114","114","25","26","1","Reversal","25","26","0.2000000000000000111","0.8000000000000000444","CRCF","0","1","1","41","41","26","6","35","6","right","6","20","13","13"
"6.4.2","Reversal_Task","1","2021-09-22","11:07:15","presentation_right","Experiment_block_leftstart","lamb.bmp","100","31","33","54","36","46","46","25","26","1","Reversal","25","26","0.2000000000000000111","0.8000000000000000444","CRCF","0","1","1","42","42","26","6","35","7","right","6","20","13","13"
"6.4.2","Reversal_Task","1","2021-09-22","11:07:15","fixation","Experiment_block_leftstart","+","100","31","33","54","36","46","46","25","26","1","Reversal","25","26","0.2000000000000000111","0.8000000000000000444","CRCF","0","1","1","42","42","27","6","35","7","right","7","20","13.5","13.5"
"6.4.2","Reversal_Task","1","2021-09-22","11:07:15","presentation_right","Experiment_block_leftstart","lamb.bmp","100","34","33","54","36","15","15","25","26","1","Reversal","25","26","0.2000000000000000111","0.8000000000000000444","CRCF","0","1","1","43","43","27","6","35","8","right","7","20","13.5","13.5"
"6.4.2","Reversal_Task","1","2021-09-22","11:07:15","fixation","Experiment_block_leftstart","+","100","34","33","54","36","15","15","25","26","1","Reversal","25","26","0.2000000000000000111","0.8000000000000000444","CRCF","0","1","1","43","43","28","6","35","8","right","8","20","14","14"
"6.4.2","Reversal_Task","1","2021-09-22","11:07:15","presentation_right","Experiment_block_leftstart","lamb.bmp","100","37","33","54","36","9","9","25","26","1","Reversal","25","26","0.2000000000000000111","0.8000000000000000444","CRCF","0","1","1","44","44","28","6","35","9","right","8","20","14","14"
"6.4.2","Reversal_Task","1","2021-09-22","11:07:15","fixation","Experiment_block_leftstart","+","100","37","33","54","36","9","9","25","26","1","Reversal","25","26","0.2000000000000000111","0.8000000000000000444","CRCF","0","1","1","44","44","29","6","35","9","right","9","20","14.5","14.5"
"6.4.2","Reversal_Task","1","2021-09-22","11:07:15","presentation_right","Experiment_block_leftstart","lamb.bmp","100","40","33","54","36","52","52","25","26","1","Reversal","25","26","0.2000000000000000111","0.8000000000000000444","CRCF","0","1","1","45","45","29","6","35","10","right","9","20","14.5","14.5"
"6.4.2","Reversal_Task","1","2021-09-22","11:07:15","fixation","Experiment_block_leftstart","+","100","40","33","54","36","52","52","25","26","1","Reversal","25","26","0.2000000000000000111","0.8000000000000000444","CRCF","0","1","1","45","45","30","6","35","10","right","10","20","15","15"
"6.4.2","Reversal_Task","1","2021-09-22","11:07:15","presentation_right","Experiment_block_leftstart","lamb.bmp","100","42","33","54","36","52","52","25","26","1","Reversal","25","26","0.2000000000000000111","0.8000000000000000444","CRCF","0","1","1","46","46","30","6","35","11","right","10","20","15","15"
"6.4.2","Reversal_Task","1","2021-09-22","11:07:15","fixation","Experiment_block_leftstart","+","100","42","33","54","36","52","52","25","26","1","Reversal","25","26","0.2000000000000000111","0.8000000000000000444","CRCF","0","1","1","46","46","31","6","35","11","right","11","20","15.5","15.5"
"6.4.2","Reversal_Task","1","2021-09-22","11:07:15","presentation_right","Experiment_block_leftstart","lamb.bmp","100","44","33","54","36","21","21","25","26","1","Reversal","25","26","0.2000000000000000111","0.8000000000000000444","CRCF","0","1","1","47","47","31","6","35","12","right","11","20","15.5","15.5"
"6.4.2","Reversal_Task","1","2021-09-22","11:07:15","fixation","Experiment_block_leftstart","+","100","44","33","54","36","21","21","25","26","1","Reversal","25","26","0.2000000000000000111","0.8000000000000000444","CRCF","0","1","1","47","47","32","6","35","12","right","12","20","16","16"
"6.4.2","Reversal_Task","1","2021-09-22","11:07:15","presentation_right","Experiment_block_leftstart","lamb.bmp","100","46","33","54","36","95","95","25","26","1","Reversal","25","26","0.2000000000000000111","0.8000000000000000444","CRCF","0","1","1","48","48","32","6","35","13","right","12","20","16","16"
"6.4.2","Reversal_Task","1","2021-09-22","11:07:15","fixation","Experiment_block_leftstart","+","100","46","33","54","36","95","95","25","26","1","Reversal","25","26","0.2000000000000000111","0.8000000000000000444","CRCF","0","1","1","48","48","33","6","35","13","right","13","20","16.5","16.5"
"6.4.2","Reversal_Task","1","2021-09-22","11:07:15","presentation_right","Experiment_block_leftstart","lamb.bmp","100","48","33","54","36","157","157","25","26","1","Reversal","25","26","0.2000000000000000111","0.8000000000000000444","CRCF","0","1","1","49","49","33","6","35","14","right","13","20","16.5","16.5"
"6.4.2","Reversal_Task","1","2021-09-22","11:07:15","fixation","Experiment_block_leftstart","+","100","48","33","54","36","157","157","25","26","1","Reversal","25","26","0.2000000000000000111","0.8000000000000000444","CRCF","0","1","1","49","49","34","6","35","14","right","14","20","17","17"
"6.4.2","Reversal_Task","1","2021-09-22","11:07:15","presentation_right","Experiment_block_leftstart","lamb.bmp","100","50","33","54","36","82","82","25","26","1","Reversal","25","26","0.2000000000000000111","0.8000000000000000444","CRCF","0","1","1","50","50","34","6","35","15","right","14","20","17","17"
"6.4.2","Reversal_Task","1","2021-09-22","11:07:15","fixation","Experiment_block_leftstart","+","100","50","33","54","36","82","82","25","26","2","Reversal","25","26","0.2000000000000000111","0.8000000000000000444","CRCF","0","1","1","50","50","35","6","35","15","right","15","20","17.5","17.5"
"6.4.2","Reversal_Task","1","2021-09-22","11:07:15","reset_trial","Experiment_block_leftstart","Press SPACE to continue","100","50","33","54","36","82","82","25","26","2","Reversal","25","26","0.2000000000000000111","0.8000000000000000444","CRCF","0","1","1","50","50","0","41","0","0","right","15","24","0","0"
"6.4.2","Reversal_Task","1","2021-09-22","11:07:15","presentation_right","Experiment_block_rightstart","leaf.bmp","100","100","33","54","36","790","790","23","36","2","Acquisiton","23","36","0.2000000000000000111","0.8000000000000000444","CRCF","0","1","1","1","51","0","41","0","1","right","0","24","0","0"
"6.4.2","Reversal_Task","1","2021-09-22","11:07:15","fixation","Experiment_block_rightstart","+","100","100","33","54","36","790","790","23","36","2","Acquisiton","23","36","0.2000000000000000111","0.8000000000000000444","CRCF","0","1","1","1","51","1","41","0","1","right","1","24","0.5","0.5"
"6.4.2","Reversal_Task","1","2021-09-22","11:07:15","presentation_right","Experiment_block_rightstart","leaf.bmp","100","100","33","54","36","234","234","23","36","2","Acquisiton","23","36","0.2000000000000000111","0.8000000000000000444","CRCF","0","1","1","2","52","1","41","0","2","right","1","24","0.5","0.5"
"6.4.2","Reversal_Task","1","2021-09-22","11:07:15","fixation","Experiment_block_rightstart","+","100","100","33","54","36","234","234","23","36","2","Acquisiton","23","36","0.2000000000000000111","0.8000000000000000444","CRCF","0","1","1","2","52","2","41","0","2","right","2","24","1","1"
"6.4.2","Reversal_Task","1","2021-09-22","11:07:15","presentation_right","Experiment_block_rightstart","leaf.bmp","100","100","33","54","36","186","186","23","36","2","Acquisiton","23","36","0.2000000000000000111","0.8000000000000000444","CRCF","0","1","1","3","53","2","41","0","3","right","2","24","1","1"
"6.4.2","Reversal_Task","1","2021-09-22","11:07:15","fixation","Experiment_block_rightstart","+","100","100","33","54","36","186","186","23","36","2","Acquisiton","23","36","0.2000000000000000111","0.8000000000000000444","CRCF","0","1","1","3","53","3","41","0","3","right","3","24","1.5","1.5"
"6.4.2","Reversal_Task","1","2021-09-22","11:07:15","presentation_right","Experiment_block_rightstart","leaf.bmp","100","100","33","54","36","199","199","23","36","2","Acquisiton","23","36","0.2000000000000000111","0.8000000000000000444","CRCF","0","1","1","4","54","3","41","0","4","right","3","24","1.5","1.5"
"6.4.2","Reversal_Task","1","2021-09-22","11:07:15","fixation","Experiment_block_rightstart","+","100","100","33","54","36","199","199","23","36","2","Acquisiton","23","36","0.2000000000000000111","0.8000000000000000444","CRCF","0","1","1","4","54","4","41","0","4","right","4","24","2","2"
"6.4.2","Reversal_Task","1","2021-09-22","11:07:15","presentation_right","Experiment_block_rightstart","leaf.bmp","100","100","33","54","36","122","122","23","36","2","Acquisiton","23","36","0.2000000000000000111","0.8000000000000000444","CRCF","0","1","1","5","55","4","41","0","5","right","4","24","2","2"
"6.4.2","Reversal_Task","1","2021-09-22","11:07:15","fixation","Experiment_block_rightstart","+","100","100","33","54","36","122","122","23","36","2","Acquisiton","23","36","0.2000000000000000111","0.8000000000000000444","CRCF","0","1","1","5","55","5","41","0","5","right","5","24","2.5","2.5"
"6.4.2","Reversal_Task","1","2021-09-22","11:07:15","presentation_right","Experiment_block_rightstart","leaf.bmp","100","100","33","54","36","104","104","23","36","2","Acquisiton","23","36","0.2000000000000000111","0.8000000000000000444","CRIF","0","1","-1","6","56","5","41","0","6","right","5","24","2.5","2.5"
"6.4.2","Reversal_Task","1","2021-09-22","11:07:15","fixation","Experiment_block_rightstart","+","100","100","33","54","36","104","104","23","36","2","Acquisiton","23","36","0.2000000000000000111","0.8000000000000000444","CRIF","0","1","-1","6","56","5","41","0","6","right","6","24","2.5","2.5"
"6.4.2","Reversal_Task","1","2021-09-22","11:07:15","presentation_right","Experiment_block_rightstart","leaf.bmp","100","100","33","54","36","64","64","23","36","2","Acquisiton","23","36","0.2000000000000000111","0.8000000000000000444","CRCF","0","1","1","7","57","5","41","0","7","right","6","24","2.5","2.5"
"6.4.2","Reversal_Task","1","2021-09-22","11:07:15","fixation","Experiment_block_rightstart","+","100","100","33","54","36","64","64","23","36","2","Acquisiton","23","36","0.2000000000000000111","0.8000000000000000444","CRCF","0","1","1","7","57","6","41","0","7","right","7","24","3","3"
"6.4.2","Reversal_Task","1","2021-09-22","11:07:15","presentation_right","Experiment_block_rightstart","leaf.bmp","100","100","33","54","36","127","127","23","36","2","Acquisiton","23","36","0.2000000000000000111","0.8000000000000000444","CRCF","0","1","1","8","58","6","41","0","8","right","7","24","3","3"
"6.4.2","Reversal_Task","1","2021-09-22","11:07:15","fixation","Experiment_block_rightstart","+","100","100","33","54","36","127","127","23","36","2","Acquisiton","23","36","0.2000000000000000111","0.8000000000000000444","CRCF","0","1","1","8","58","7","41","0","8","right","8","24","3.5","3.5"
"6.4.2","Reversal_Task","1","2021-09-22","11:07:15","presentation_right","Experiment_block_rightstart","leaf.bmp","100","100","33","54","36","94","94","23","36","2","Acquisiton","23","36","0.2000000000000000111","0.8000000000000000444","CRCF","0","1","1","9","59","7","41","0","9","right","8","24","3.5","3.5"
"6.4.2","Reversal_Task","1","2021-09-22","11:07:15","fixation","Experiment_block_rightstart","+","100","100","33","54","36","94","94","23","36","2","Acquisiton","23","36","0.2000000000000000111","0.8000000000000000444","CRCF","0","1","1","9","59","8","41","0","9","right","9","24","4","4"
"6.4.2","Reversal_Task","1","2021-09-22","11:07:15","presentation_right","Experiment_block_rightstart","leaf.bmp","100","100","33","54","36","115","115","23","36","2","Acquisiton","23","36","0.2000000000000000111","0.8000000000000000444","CRCF","0","1","1","10","60","8","41","0","10","right","9","24","4","4"
"6.4.2","Reversal_Task","1","2021-09-22","11:07:15","fixation","Experiment_block_rightstart","+","100","100","33","54","36","115","115","23","36","2","Acquisiton","23","36","0.2000000000000000111","0.8000000000000000444","CRCF","0","1","1","10","60","9","41","0","10","right","10","24","4.5","4.5"
"6.4.2","Reversal_Task","1","2021-09-22","11:07:15","presentation_right","Experiment_block_rightstart","leaf.bmp","100","100","33","54","36","88","88","23","36","2","Acquisiton","23","36","0.2000000000000000111","0.8000000000000000444","CRIF","0","1","-1","11","61","9","41","0","11","right","10","24","4.5","4.5"
"6.4.2","Reversal_Task","1","2021-09-22","11:07:15","fixation","Experiment_block_rightstart","+","100","100","33","54","36","88","88","23","36","2","Acquisiton","23","36","0.2000000000000000111","0.8000000000000000444","CRIF","0","1","-1","11","61","9","41","0","11","right","11","24","4.5","4.5"
"6.4.2","Reversal_Task","1","2021-09-22","11:07:15","presentation_right","Experiment_block_rightstart","leaf.bmp","100","100","33","54","36","121","121","23","36","2","Acquisiton","23","36","0.2000000000000000111","0.8000000000000000444","CRCF","0","1","1","12","62","9","41","0","12","right","11","24","4.5","4.5"
"6.4.2","Reversal_Task","1","2021-09-22","11:07:15","fixation","Experiment_block_rightstart","+","100","100","33","54","36","121","121","23","36","2","Acquisiton","23","36","0.2000000000000000111","0.8000000000000000444","CRCF","0","1","1","12","62","10","41","0","12","right","12","24","5","5"
"6.4.2","Reversal_Task","1","2021-09-22","11:07:15","presentation_right","Experiment_block_rightstart","leaf.bmp","100","100","33","54","36","136","136","23","36","2","Acquisiton","23","36","0.2000000000000000111","0.8000000000000000444","CRIF","0","1","-1","13","63","10","41","0","13","right","12","24","5","5"
"6.4.2","Reversal_Task","1","2021-09-22","11:07:15","fixation","Experiment_block_rightstart","+","100","100","33","54","36","136","136","23","36","2","Acquisiton","23","36","0.2000000000000000111","0.8000000000000000444","CRIF","0","1","-1","13","63","10","41","0","13","right","13","24","5","5"
"6.4.2","Reversal_Task","1","2021-09-22","11:07:15","presentation_right","Experiment_block_rightstart","leaf.bmp","100","100","33","54","36","173","173","23","36","2","Acquisiton","23","36","0.2000000000000000111","0.8000000000000000444","CRCF","0","1","1","14","64","10","41","0","14","right","13","24","5","5"
"6.4.2","Reversal_Task","1","2021-09-22","11:07:15","fixation","Experiment_block_rightstart","+","100","100","33","54","36","173","173","23","36","2","Acquisiton","23","36","0.2000000000000000111","0.8000000000000000444","CRCF","0","1","1","14","64","11","41","0","14","right","14","24","5.5","5.5"
"6.4.2","Reversal_Task","1","2021-09-22","11:07:15","presentation_right","Experiment_block_rightstart","leaf.bmp","100","93","33","54","33","138","138","23","36","2","Acquisiton","23","36","0.2000000000000000111","0.8000000000000000444","IRIF","0","-1","1","15","65","11","41","1","14","right","14","24","5.5","5.5"
"6.4.2","Reversal_Task","1","2021-09-22","11:07:15","fixation","Experiment_block_rightstart","+","100","93","33","54","33","138","138","23","36","2","Acquisiton","23","36","0.2000000000000000111","0.8000000000000000444","IRIF","0","-1","1","15","65","11","41","1","14","right","0","24","5.5","5.5"
"6.4.2","Reversal_Task","1","2021-09-22","11:07:15","presentation_right","Experiment_block_rightstart","leaf.bmp","100","87","33","54","33","176","176","23","36","2","Acquisiton","23","36","0.2000000000000000111","0.8000000000000000444","IRIF","0","-1","1","16","66","11","41","2","14","right","0","24","5.5","5.5"
"6.4.2","Reversal_Task","1","2021-09-22","11:07:15","fixation","Experiment_block_rightstart","+","100","87","33","54","33","176","176","23","36","2","Acquisiton","23","36","0.2000000000000000111","0.8000000000000000444","IRIF","0","-1","1","16","66","11","41","2","14","right","0","24","5.5","5.5"
"6.4.2","Reversal_Task","1","2021-09-22","11:07:15","presentation_right","Experiment_block_rightstart","leaf.bmp","100","88","33","54","36","53","53","23","36","2","Acquisiton","23","36","0.2000000000000000111","0.8000000000000000444","CRIF","0","1","-1","17","67","11","41","2","15","right","0","24","5.5","5.5"
"6.4.2","Reversal_Task","1","2021-09-22","11:07:15","fixation","Experiment_block_rightstart","+","100","88","33","54","36","53","53","23","36","2","Acquisiton","23","36","0.2000000000000000111","0.8000000000000000444","CRIF","0","1","-1","17","67","11","41","2","15","right","1","24","5.5","5.5"
"6.4.2","Reversal_Task","1","2021-09-22","11:07:15","presentation_right","Experiment_block_rightstart","leaf.bmp","100","88","33","54","36","181","181","23","36","2","Acquisiton","23","36","0.2000000000000000111","0.8000000000000000444","CRCF","0","1","1","18","68","11","41","2","16","right","1","24","5.5","5.5"
"6.4.2","Reversal_Task","1","2021-09-22","11:07:15","fixation","Experiment_block_rightstart","+","100","88","33","54","36","181","181","23","36","2","Acquisiton","23","36","0.2000000000000000111","0.8000000000000000444","CRCF","0","1","1","18","68","12","41","2","16","right","2","24","6","6"
"6.4.2","Reversal_Task","1","2021-09-22","11:07:15","presentation_right","Experiment_block_rightstart","leaf.bmp","100","89","33","54","36","145","145","23","36","2","Acquisiton","23","36","0.2000000000000000111","0.8000000000000000444","CRIF","0","1","-1","19","69","12","41","2","17","right","2","24","6","6"
"6.4.2","Reversal_Task","1","2021-09-22","11:07:15","fixation","Experiment_block_rightstart","+","100","89","33","54","36","145","145","23","36","2","Acquisiton","23","36","0.2000000000000000111","0.8000000000000000444","CRIF","0","1","-1","19","69","12","41","2","17","right","3","24","6","6"
"6.4.2","Reversal_Task","1","2021-09-22","11:07:15","presentation_right","Experiment_block_rightstart","leaf.bmp","100","90","33","54","36","133","133","23","36","2","Acquisiton","23","36","0.2000000000000000111","0.8000000000000000444","CRIF","0","1","-1","20","70","12","41","2","18","right","3","24","6","6"
"6.4.2","Reversal_Task","1","2021-09-22","11:07:15","fixation","Experiment_block_rightstart","+","100","90","33","54","36","133","133","23","36","2","Acquisiton","23","36","0.2000000000000000111","0.8000000000000000444","CRIF","0","1","-1","20","70","12","41","2","18","right","4","24","6","6"
"6.4.2","Reversal_Task","1","2021-09-22","11:07:15","presentation_right","Experiment_block_rightstart","leaf.bmp","100","90","33","54","36","112","112","23","36","2","Acquisiton","23","36","0.2000000000000000111","0.8000000000000000444","CRIF","0","1","-1","21","71","12","41","2","19","right","4","24","6","6"
"6.4.2","Reversal_Task","1","2021-09-22","11:07:15","fixation","Experiment_block_rightstart","+","100","90","33","54","36","112","112","23","36","2","Acquisiton","23","36","0.2000000000000000111","0.8000000000000000444","CRIF","0","1","-1","21","71","12","41","2","19","right","5","24","6","6"
"6.4.2","Reversal_Task","1","2021-09-22","11:07:15","presentation_right","Experiment_block_rightstart","leaf.bmp","100","90","33","54","36","193","193","23","36","2","Acquisiton","23","36","0.2000000000000000111","0.8000000000000000444","CRCF","0","1","1","22","72","12","41","2","20","right","5","24","6","6"
"6.4.2","Reversal_Task","1","2021-09-22","11:07:15","fixation","Experiment_block_rightstart","+","100","90","33","54","36","193","193","23","36","2","Acquisiton","23","36","0.2000000000000000111","0.8000000000000000444","CRCF","0","1","1","22","72","13","41","2","20","right","6","24","6.5","6.5"
"6.4.2","Reversal_Task","1","2021-09-22","11:07:15","presentation_right","Experiment_block_rightstart","leaf.bmp","100","91","33","54","36","179","179","23","36","2","Acquisiton","23","36","0.2000000000000000111","0.8000000000000000444","CRCF","0","1","1","23","73","13","41","2","21","right","6","24","6.5","6.5"
"6.4.2","Reversal_Task","1","2021-09-22","11:07:15","fixation","Experiment_block_rightstart","+","100","91","33","54","36","179","179","23","36","2","Acquisiton","23","36","0.2000000000000000111","0.8000000000000000444","CRCF","0","1","1","23","73","14","41","2","21","right","7","24","7","7"
"6.4.2","Reversal_Task","1","2021-09-22","11:07:15","presentation_right","Experiment_block_rightstart","leaf.bmp","100","91","33","54","36","112","112","23","36","2","Acquisiton","23","36","0.2000000000000000111","0.8000000000000000444","CRCF","0","1","1","24","74","14","41","2","22","right","7","24","7","7"
"6.4.2","Reversal_Task","1","2021-09-22","11:07:15","fixation","Experiment_block_rightstart","+","100","91","33","54","36","112","112","23","36","2","Acquisiton","23","36","0.2000000000000000111","0.8000000000000000444","CRCF","0","1","1","24","74","15","41","2","22","right","8","24","7.5","7.5"
"6.4.2","Reversal_Task","1","2021-09-22","11:07:15","presentation_left","Experiment_block_rightstart","leaf.bmp","0","91","36","126","36","112","126","23","36","2","Reversal","23","36","0.8000000000000000444","0.2000000000000000111","IRIF","0","-1","1","25","75","15","41","2","23","left","8","24","7.5","7.5"
"6.4.2","Reversal_Task","1","2021-09-22","11:07:15","fixation","Experiment_block_rightstart","+","0","91","36","126","36","112","126","23","36","2","Reversal","23","36","0.8000000000000000444","0.2000000000000000111","IRIF","0","-1","1","25","75","15","41","2","23","left","0","24","7.5","7.5"
"6.4.2","Reversal_Task","1","2021-09-22","11:07:15","presentation_left","Experiment_block_rightstart","leaf.bmp","0","91","36","146","36","112","146","23","36","2","Reversal","23","36","0.8000000000000000444","0.2000000000000000111","IRCF","0","-1","-1","26","76","15","41","2","24","left","0","24","7.5","7.5"
"6.4.2","Reversal_Task","1","2021-09-22","11:07:15","fixation","Experiment_block_rightstart","+","0","91","36","146","36","112","146","23","36","2","Reversal","23","36","0.8000000000000000444","0.2000000000000000111","IRCF","0","-1","-1","26","76","16","41","2","24","left","0","24","8","8"
"6.4.2","Reversal_Task","1","2021-09-22","11:07:15","presentation_left","Experiment_block_rightstart","leaf.bmp","0","91","36","121","36","112","121","23","36","2","Reversal","23","36","0.8000000000000000444","0.2000000000000000111","IRIF","0","-1","1","27","77","16","41","2","25","left","0","24","8","8"
"6.4.2","Reversal_Task","1","2021-09-22","11:07:15","fixation","Experiment_block_rightstart","+","0","91","36","121","36","112","121","23","36","2","Reversal","23","36","0.8000000000000000444","0.2000000000000000111","IRIF","0","-1","1","27","77","16","41","2","25","left","0","24","8","8"
"6.4.2","Reversal_Task","1","2021-09-22","11:07:15","presentation_left","Experiment_block_rightstart","leaf.bmp","0","91","36","167","36","112","167","23","36","2","Reversal","23","36","0.8000000000000000444","0.2000000000000000111","IRIF","0","-1","1","28","78","16","41","2","26","left","0","24","8","8"
"6.4.2","Reversal_Task","1","2021-09-22","11:07:15","fixation","Experiment_block_rightstart","+","0","91","36","167","36","112","167","23","36","2","Reversal","23","36","0.8000000000000000444","0.2000000000000000111","IRIF","0","-1","1","28","78","16","41","2","26","left","0","24","8","8"
"6.4.2","Reversal_Task","1","2021-09-22","11:07:15","presentation_left","Experiment_block_rightstart","leaf.bmp","0","91","36","131","36","112","131","23","36","2","Reversal","23","36","0.8000000000000000444","0.2000000000000000111","IRIF","0","-1","1","29","79","16","41","2","27","left","0","24","8","8"
"6.4.2","Reversal_Task","1","2021-09-22","11:07:15","fixation","Experiment_block_rightstart","+","0","91","36","131","36","112","131","23","36","2","Reversal","23","36","0.8000000000000000444","0.2000000000000000111","IRIF","0","-1","1","29","79","16","41","2","27","left","0","24","8","8"
"6.4.2","Reversal_Task","1","2021-09-22","11:07:15","presentation_left","Experiment_block_rightstart","leaf.bmp","0","91","36","153","36","112","153","23","36","2","Reversal","23","36","0.8000000000000000444","0.2000000000000000111","IRCF","0","-1","-1","30","80","16","41","2","28","left","0","24","8","8"
"6.4.2","Reversal_Task","1","2021-09-22","11:07:15","fixation","Experiment_block_rightstart","+","0","91","36","153","36","112","153","23","36","2","Reversal","23","36","0.8000000000000000444","0.2000000000000000111","IRCF","0","-1","-1","30","80","17","41","2","28","left","0","24","8.5","8.5"
"6.4.2","Reversal_Task","1","2021-09-22","11:07:15","presentation_left","Experiment_block_rightstart","leaf.bmp","0","91","36","157","36","112","157","23","36","2","Reversal","23","36","0.8000000000000000444","0.2000000000000000111","IRCF","0","-1","-1","31","81","17","41","2","29","left","0","24","8.5","8.5"
"6.4.2","Reversal_Task","1","2021-09-22","11:07:15","fixation","Experiment_block_rightstart","+","0","91","36","157","36","112","157","23","36","2","Reversal","23","36","0.8000000000000000444","0.2000000000000000111","IRCF","0","-1","-1","31","81","18","41","2","29","left","0","24","9","9"
"6.4.2","Reversal_Task","1","2021-09-22","11:07:15","presentation_left","Experiment_block_rightstart","leaf.bmp","0","91","36","144","36","112","144","23","36","2","Reversal","23","36","0.8000000000000000444","0.2000000000000000111","IRIF","0","-1","1","32","82","18","41","2","30","left","0","24","9","9"
"6.4.2","Reversal_Task","1","2021-09-22","11:07:15","fixation","Experiment_block_rightstart","+","0","91","36","144","36","112","144","23","36","2","Reversal","23","36","0.8000000000000000444","0.2000000000000000111","IRIF","0","-1","1","32","82","18","41","2","30","left","0","24","9","9"
"6.4.2","Reversal_Task","1","2021-09-22","11:07:15","presentation_left","Experiment_block_rightstart","leaf.bmp","0","91","36","103","36","112","103","23","36","2","Reversal","23","36","0.8000000000000000444","0.2000000000000000111","IRIF","0","-1","1","33","83","18","41","2","31","left","0","24","9","9"
"6.4.2","Reversal_Task","1","2021-09-22","11:07:15","fixation","Experiment_block_rightstart","+","0","91","36","103","36","112","103","23","36","2","Reversal","23","36","0.8000000000000000444","0.2000000000000000111","IRIF","0","-1","1","33","83","18","41","2","31","left","0","24","9","9"
"6.4.2","Reversal_Task","1","2021-09-22","11:07:15","presentation_left","Experiment_block_rightstart","leaf.bmp","0","91","36","94","36","112","94","23","36","2","Reversal","23","36","0.8000000000000000444","0.2000000000000000111","IRIF","0","-1","1","34","84","18","41","2","32","left","0","24","9","9"
"6.4.2","Reversal_Task","1","2021-09-22","11:07:15","fixation","Experiment_block_rightstart","+","0","91","36","94","36","112","94","23","36","2","Reversal","23","36","0.8000000000000000444","0.2000000000000000111","IRIF","0","-1","1","34","84","18","41","2","32","left","0","24","9","9"
"6.4.2","Reversal_Task","1","2021-09-22","11:07:15","presentation_left","Experiment_block_rightstart","leaf.bmp","0","91","36","85","36","112","85","23","36","2","Reversal","23","36","0.8000000000000000444","0.2000000000000000111","IRCF","0","-1","-1","35","85","18","41","2","33","left","0","24","9","9"
"6.4.2","Reversal_Task","1","2021-09-22","11:07:15","fixation","Experiment_block_rightstart","+","0","91","36","85","36","112","85","23","36","2","Reversal","23","36","0.8000000000000000444","0.2000000000000000111","IRCF","0","-1","-1","35","85","19","41","2","33","left","0","24","9.5","9.5"
"6.4.2","Reversal_Task","1","2021-09-22","11:07:15","presentation_left","Experiment_block_rightstart","leaf.bmp","0","91","36","101","36","112","101","23","36","2","Reversal","23","36","0.8000000000000000444","0.2000000000000000111","IRIF","0","-1","1","36","86","19","41","2","34","left","0","24","9.5","9.5"
"6.4.2","Reversal_Task","1","2021-09-22","11:07:15","fixation","Experiment_block_rightstart","+","0","91","36","101","36","112","101","23","36","2","Reversal","23","36","0.8000000000000000444","0.2000000000000000111","IRIF","0","-1","1","36","86","19","41","2","34","left","0","24","9.5","9.5"
"6.4.2","Reversal_Task","1","2021-09-22","11:07:15","presentation_left","Experiment_block_rightstart","leaf.bmp","0","91","36","123","36","112","123","23","36","2","Reversal","23","36","0.8000000000000000444","0.2000000000000000111","IRIF","0","-1","1","37","87","19","41","2","35","left","0","24","9.5","9.5"
"6.4.2","Reversal_Task","1","2021-09-22","11:07:15","fixation","Experiment_block_rightstart","+","0","91","36","123","36","112","123","23","36","2","Reversal","23","36","0.8000000000000000444","0.2000000000000000111","IRIF","0","-1","1","37","87","19","41","2","35","left","0","24","9.5","9.5"
"6.4.2","Reversal_Task","1","2021-09-22","11:07:15","presentation_left","Experiment_block_rightstart","leaf.bmp","0","91","36","99","36","112","99","23","36","2","Reversal","23","36","0.8000000000000000444","0.2000000000000000111","IRIF","0","-1","1","38","88","19","41","2","36","left","0","24","9.5","9.5"
"6.4.2","Reversal_Task","1","2021-09-22","11:07:15","fixation","Experiment_block_rightstart","+","0","91","36","99","36","112","99","23","36","2","Reversal","23","36","0.8000000000000000444","0.2000000000000000111","IRIF","0","-1","1","38","88","19","41","2","36","left","0","24","9.5","9.5"
"6.4.2","Reversal_Task","1","2021-09-22","11:07:15","presentation_left","Experiment_block_rightstart","leaf.bmp","6","91","33","97","36","112","97","23","36","2","Reversal","23","36","0.8000000000000000444","0.2000000000000000111","CRCF","0","1","1","39","89","19","41","3","36","left","0","24","9.5","9.5"
"6.4.2","Reversal_Task","1","2021-09-22","11:07:15","fixation","Experiment_block_rightstart","+","6","91","33","97","36","112","97","23","36","2","Reversal","23","36","0.8000000000000000444","0.2000000000000000111","CRCF","0","1","1","39","89","20","41","3","36","left","1","24","10","10"
"6.4.2","Reversal_Task","1","2021-09-22","11:07:15","presentation_left","Experiment_block_rightstart","leaf.bmp","12","91","33","176","36","112","176","23","36","2","Reversal","23","36","0.8000000000000000444","0.2000000000000000111","CRCF","0","1","1","40","90","20","41","4","36","left","1","24","10","10"
"6.4.2","Reversal_Task","1","2021-09-22","11:07:15","fixation","Experiment_block_rightstart","+","12","91","33","176","36","112","176","23","36","2","Reversal","23","36","0.8000000000000000444","0.2000000000000000111","CRCF","0","1","1","40","90","21","41","4","36","left","2","24","10.5","10.5"
"6.4.2","Reversal_Task","1","2021-09-22","11:07:15","presentation_left","Experiment_block_rightstart","leaf.bmp","17","91","33","92","36","112","92","23","36","2","Reversal","23","36","0.8000000000000000444","0.2000000000000000111","CRCF","0","1","1","41","91","21","41","5","36","left","2","24","10.5","10.5"
"6.4.2","Reversal_Task","1","2021-09-22","11:07:15","fixation","Experiment_block_rightstart","+","17","91","33","92","36","112","92","23","36","2","Reversal","23","36","0.8000000000000000444","0.2000000000000000111","CRCF","0","1","1","41","91","22","41","5","36","left","3","24","11","11"
"6.4.2","Reversal_Task","1","2021-09-22","11:07:15","presentation_left","Experiment_block_rightstart","leaf.bmp","22","91","33","124","36","112","124","23","36","2","Reversal","23","36","0.8000000000000000444","0.2000000000000000111","CRCF","0","1","1","42","92","22","41","6","36","left","3","24","11","11"
"6.4.2","Reversal_Task","1","2021-09-22","11:07:15","fixation","Experiment_block_rightstart","+","22","91","33","124","36","112","124","23","36","2","Reversal","23","36","0.8000000000000000444","0.2000000000000000111","CRCF","0","1","1","42","92","23","41","6","36","left","4","24","11.5","11.5"
"6.4.2","Reversal_Task","1","2021-09-22","11:07:15","presentation_left","Experiment_block_rightstart","leaf.bmp","26","91","33","82","36","112","82","23","36","2","Reversal","23","36","0.8000000000000000444","0.2000000000000000111","CRCF","0","1","1","43","93","23","41","7","36","left","4","24","11.5","11.5"
"6.4.2","Reversal_Task","1","2021-09-22","11:07:15","fixation","Experiment_block_rightstart","+","26","91","33","82","36","112","82","23","36","2","Reversal","23","36","0.8000000000000000444","0.2000000000000000111","CRCF","0","1","1","43","93","24","41","7","36","left","5","24","12","12"
"6.4.2","Reversal_Task","1","2021-09-22","11:07:15","presentation_left","Experiment_block_rightstart","leaf.bmp","30","91","33","153","36","112","153","23","36","2","Reversal","23","36","0.8000000000000000444","0.2000000000000000111","CRCF","0","1","1","44","94","24","41","8","36","left","5","24","12","12"
"6.4.2","Reversal_Task","1","2021-09-22","11:07:15","fixation","Experiment_block_rightstart","+","30","91","33","153","36","112","153","23","36","2","Reversal","23","36","0.8000000000000000444","0.2000000000000000111","CRCF","0","1","1","44","94","25","41","8","36","left","6","24","12.5","12.5"
"6.4.2","Reversal_Task","1","2021-09-22","11:07:15","presentation_left","Experiment_block_rightstart","leaf.bmp","33","91","33","6","36","112","6","23","36","2","Reversal","23","36","0.8000000000000000444","0.2000000000000000111","CRCF","0","1","1","45","95","25","41","9","36","left","6","24","12.5","12.5"
"6.4.2","Reversal_Task","1","2021-09-22","11:07:15","fixation","Experiment_block_rightstart","+","33","91","33","6","36","112","6","23","36","2","Reversal","23","36","0.8000000000000000444","0.2000000000000000111","CRCF","0","1","1","45","95","26","41","9","36","left","7","24","13","13"
"6.4.2","Reversal_Task","1","2021-09-22","11:07:15","presentation_left","Experiment_block_rightstart","leaf.bmp","36","91","33","215","36","112","215","23","36","2","Reversal","23","36","0.8000000000000000444","0.2000000000000000111","CRIF","0","1","-1","46","96","26","41","10","36","left","7","24","13","13"
"6.4.2","Reversal_Task","1","2021-09-22","11:07:15","fixation","Experiment_block_rightstart","+","36","91","33","215","36","112","215","23","36","2","Reversal","23","36","0.8000000000000000444","0.2000000000000000111","CRIF","0","1","-1","46","96","26","41","10","36","left","8","24","13","13"
"6.4.2","Reversal_Task","1","2021-09-22","11:07:15","presentation_left","Experiment_block_rightstart","leaf.bmp","39","91","33","163","36","112","163","23","36","2","Reversal","23","36","0.8000000000000000444","0.2000000000000000111","CRIF","0","1","-1","47","97","26","41","11","36","left","8","24","13","13"
"6.4.2","Reversal_Task","1","2021-09-22","11:07:15","fixation","Experiment_block_rightstart","+","39","91","33","163","36","112","163","23","36","2","Reversal","23","36","0.8000000000000000444","0.2000000000000000111","CRIF","0","1","-1","47","97","26","41","11","36","left","9","24","13","13"
"6.4.2","Reversal_Task","1","2021-09-22","11:07:15","presentation_left","Experiment_block_rightstart","leaf.bmp","41","91","33","159","36","112","159","23","36","2","Reversal","23","36","0.8000000000000000444","0.2000000000000000111","CRCF","0","1","1","48","98","26","41","12","36","left","9","24","13","13"
"6.4.2","Reversal_Task","1","2021-09-22","11:07:15","fixation","Experiment_block_rightstart","+","41","91","33","159","36","112","159","23","36","2","Reversal","23","36","0.8000000000000000444","0.2000000000000000111","CRCF","0","1","1","48","98","27","41","12","36","left","10","24","13.5","13.5"
"6.4.2","Reversal_Task","1","2021-09-22","11:07:15","presentation_left","Experiment_block_rightstart","leaf.bmp","44","91","33","10","36","112","10","23","36","2","Reversal","23","36","0.8000000000000000444","0.2000000000000000111","CRIF","0","1","-1","49","99","27","41","13","36","left","10","24","13.5","13.5"
"6.4.2","Reversal_Task","1","2021-09-22","11:07:15","fixation","Experiment_block_rightstart","+","44","91","33","10","36","112","10","23","36","2","Reversal","23","36","0.8000000000000000444","0.2000000000000000111","CRIF","0","1","-1","49","99","27","41","13","36","left","11","24","13.5","13.5"
"6.4.2","Reversal_Task","1","2021-09-22","11:07:15","presentation_left","Experiment_block_rightstart","leaf.bmp","46","91","33","141","36","112","141","23","36","2","Reversal","23","36","0.8000000000000000444","0.2000000000000000111","CRCF","0","1","1","50","100","27","41","14","36","left","11","24","13.5","13.5"
"6.4.2","Reversal_Task","1","2021-09-22","11:07:15","fixation","Experiment_block_rightstart","+","46","91","33","141","36","112","141","23","36","3","Reversal","23","36","0.8000000000000000444","0.2000000000000000111","CRCF","0","1","1","50","100","28","41","14","36","left","12","24","14","14"
"6.4.2","Reversal_Task","1","2021-09-22","11:07:15","reset_trial","Experiment_block_rightstart","Press SPACE to continue","46","91","33","141","36","112","141","23","36","3","Reversal","23","36","0.8000000000000000444","0.2000000000000000111","CRCF","0","1","1","50","100","0","69","0","0","left","12","26","0","0"
"6.4.2","Reversal_Task","1","2021-09-22","11:07:15","presentation_left","Experiment_block_leftstart","binocular.bmp","100","91","33","254","36","112","254","9","27","3","Acquisiton","9","27","0.8000000000000000444","0.2000000000000000111","CRCF","0","1","1","1","101","0","69","1","0","left","12","26","0","0"
"6.4.2","Reversal_Task","1","2021-09-22","11:07:15","fixation","Experiment_block_leftstart","+","100","91","33","254","36","112","254","9","27","3","Acquisiton","9","27","0.8000000000000000444","0.2000000000000000111","CRCF","0","1","1","1","101","1","69","1","0","left","13","26","0.5","0.5"
"6.4.2","Reversal_Task","1","2021-09-22","11:07:15","presentation_left","Experiment_block_leftstart","binocular.bmp","100","91","33","0","36","112","0","9","27","3","Acquisiton","9","27","0.8000000000000000444","0.2000000000000000111","CRCF","0","1","1","2","102","1","69","2","0","left","13","26","0.5","0.5"
"6.4.2","Reversal_Task","1","2021-09-22","11:07:15","fixation","Experiment_block_leftstart","+","100","91","33","0","36","112","0","9","27","3","Acquisiton","9","27","0.8000000000000000444","0.2000000000000000111","CRCF","0","1","1","2","102","2","69","2","0","left","14","26","1","1"
"6.4.2","Reversal_Task","1","2021-09-22","11:07:15","presentation_left","Experiment_block_leftstart","binocular.bmp","100","91","33","127","36","112","127","9","27","3","Acquisiton","9","27","0.8000000000000000444","0.2000000000000000111","CRCF","0","1","1","3","103","2","69","3","0","left","14","26","1","1"
"6.4.2","Reversal_Task","1","2021-09-22","11:07:15","fixation","Experiment_block_leftstart","+","100","91","33","127","36","112","127","9","27","3","Acquisiton","9","27","0.8000000000000000444","0.2000000000000000111","CRCF","0","1","1","3","103","3","69","3","0","left","15","26","1.5","1.5"
"6.4.2","Reversal_Task","1","2021-09-22","11:07:15","presentation_left","Experiment_block_leftstart","binocular.bmp","100","91","33","120","36","112","120","9","27","3","Acquisiton","9","27","0.8000000000000000444","0.2000000000000000111","CRCF","0","1","1","4","104","3","69","4","0","left","15","26","1.5","1.5"
"6.4.2","Reversal_Task","1","2021-09-22","11:07:15","fixation","Experiment_block_leftstart","+","100","91","33","120","36","112","120","9","27","3","Acquisiton","9","27","0.8000000000000000444","0.2000000000000000111","CRCF","0","1","1","4","104","4","69","4","0","left","16","26","2","2"
"6.4.2","Reversal_Task","1","2021-09-22","11:07:15","presentation_left","Experiment_block_leftstart","binocular.bmp","100","91","33","347","36","112","347","9","27","3","Acquisiton","9","27","0.8000000000000000444","0.2000000000000000111","CRCF","0","1","1","5","105","4","69","5","0","left","16","26","2","2"
"6.4.2","Reversal_Task","1","2021-09-22","11:07:15","fixation","Experiment_block_leftstart","+","100","91","33","347","36","112","347","9","27","3","Acquisiton","9","27","0.8000000000000000444","0.2000000000000000111","CRCF","0","1","1","5","105","5","69","5","0","left","17","26","2.5","2.5"
"6.4.2","Reversal_Task","1","2021-09-22","11:07:15","presentation_left","Experiment_block_leftstart","binocular.bmp","100","91","33","41","36","112","41","9","27","3","Acquisiton","9","27","0.8000000000000000444","0.2000000000000000111","CRCF","0","1","1","6","106","5","69","6","0","left","17","26","2.5","2.5"
"6.4.2","Reversal_Task","1","2021-09-22","11:07:15","fixation","Experiment_block_leftstart","+","100","91","33","41","36","112","41","9","27","3","Acquisiton","9","27","0.8000000000000000444","0.2000000000000000111","CRCF","0","1","1","6","106","6","69","6","0","left","18","26","3","3"
"6.4.2","Reversal_Task","1","2021-09-22","11:07:15","presentation_left","Experiment_block_leftstart","binocular.bmp","100","91","33","43","36","112","43","9","27","3","Acquisiton","9","27","0.8000000000000000444","0.2000000000000000111","CRCF","0","1","1","7","107","6","69","7","0","left","18","26","3","3"
"6.4.2","Reversal_Task","1","2021-09-22","11:07:15","fixation","Experiment_block_leftstart","+","100","91","33","43","36","112","43","9","27","3","Acquisiton","9","27","0.8000000000000000444","0.2000000000000000111","CRCF","0","1","1","7","107","7","69","7","0","left","19","26","3.5","3.5"
"6.4.2","Reversal_Task","1","2021-09-22","11:07:15","presentation_left","Experiment_block_leftstart","binocular.bmp","100","91","33","28","36","112","28","9","27","3","Acquisiton","9","27","0.8000000000000000444","0.2000000000000000111","CRCF","0","1","1","8","108","7","69","8","0","left","19","26","3.5","3.5"
"6.4.2","Reversal_Task","1","2021-09-22","11:07:15","fixation","Experiment_block_leftstart","+","100","91","33","28","36","112","28","9","27","3","Acquisiton","9","27","0.8000000000000000444","0.2000000000000000111","CRCF","0","1","1","8","108","8","69","8","0","left","20","26","4","4"
"6.4.2","Reversal_Task","1","2021-09-22","11:07:15","presentation_left","Experiment_block_leftstart","binocular.bmp","100","91","33","165","36","112","165","9","27","3","Acquisiton","9","27","0.8000000000000000444","0.2000000000000000111","CRCF","0","1","1","9","109","8","69","9","0","left","20","26","4","4"
"6.4.2","Reversal_Task","1","2021-09-22","11:07:15","fixation","Experiment_block_leftstart","+","100","91","33","165","36","112","165","9","27","3","Acquisiton","9","27","0.8000000000000000444","0.2000000000000000111","CRCF","0","1","1","9","109","9","69","9","0","left","21","26","4.5","4.5"
"6.4.2","Reversal_Task","1","2021-09-22","11:07:15","presentation_left","Experiment_block_leftstart","binocular.bmp","100","91","33","194","36","112","194","9","27","3","Acquisiton","9","27","0.8000000000000000444","0.2000000000000000111","CRCF","0","1","1","10","110","9","69","10","0","left","21","26","4.5","4.5"
"6.4.2","Reversal_Task","1","2021-09-22","11:07:15","fixation","Experiment_block_leftstart","+","100","91","33","194","36","112","194","9","27","3","Acquisiton","9","27","0.8000000000000000444","0.2000000000000000111","CRCF","0","1","1","10","110","10","69","10","0","left","22","26","5","5"
"6.4.2","Reversal_Task","1","2021-09-22","11:07:15","presentation_left","Experiment_block_leftstart","binocular.bmp","100","91","33","37","36","112","37","9","27","3","Acquisiton","9","27","0.8000000000000000444","0.2000000000000000111","CRCF","0","1","1","11","111","10","69","11","0","left","22","26","5","5"
"6.4.2","Reversal_Task","1","2021-09-22","11:07:15","fixation","Experiment_block_leftstart","+","100","91","33","37","36","112","37","9","27","3","Acquisiton","9","27","0.8000000000000000444","0.2000000000000000111","CRCF","0","1","1","11","111","11","69","11","0","left","23","26","5.5","5.5"
"6.4.2","Reversal_Task","1","2021-09-22","11:07:15","presentation_left","Experiment_block_leftstart","binocular.bmp","100","91","33","54","36","112","54","9","27","3","Acquisiton","9","27","0.8000000000000000444","0.2000000000000000111","CRCF","0","1","1","12","112","11","69","12","0","left","23","26","5.5","5.5"
"6.4.2","Reversal_Task","1","2021-09-22","11:07:15","fixation","Experiment_block_leftstart","+","100","91","33","54","36","112","54","9","27","3","Acquisiton","9","27","0.8000000000000000444","0.2000000000000000111","CRCF","0","1","1","12","112","12","69","12","0","left","24","26","6","6"
"6.4.2","Reversal_Task","1","2021-09-22","11:07:15","presentation_left","Experiment_block_leftstart","binocular.bmp","100","91","33","103","36","112","103","9","27","3","Acquisiton","9","27","0.8000000000000000444","0.2000000000000000111","CRIF","0","1","-1","13","113","12","69","13","0","left","24","26","6","6"
"6.4.2","Reversal_Task","1","2021-09-22","11:07:15","fixation","Experiment_block_leftstart","+","100","91","33","103","36","112","103","9","27","3","Acquisiton","9","27","0.8000000000000000444","0.2000000000000000111","CRIF","0","1","-1","13","113","12","69","13","0","left","25","26","6","6"
"6.4.2","Reversal_Task","1","2021-09-22","11:07:15","presentation_left","Experiment_block_leftstart","binocular.bmp","100","91","33","206","36","112","206","9","27","3","Acquisiton","9","27","0.8000000000000000444","0.2000000000000000111","CRCF","0","1","1","14","114","12","69","14","0","left","25","26","6","6"
"6.4.2","Reversal_Task","1","2021-09-22","11:07:15","fixation","Experiment_block_leftstart","+","100","91","33","206","36","112","206","9","27","3","Acquisiton","9","27","0.8000000000000000444","0.2000000000000000111","CRCF","0","1","1","14","114","13","69","14","0","left","26","26","6.5","6.5"
"6.4.2","Reversal_Task","1","2021-09-22","11:07:15","presentation_left","Experiment_block_leftstart","binocular.bmp","100","91","33","153","36","112","153","9","27","3","Acquisiton","9","27","0.8000000000000000444","0.2000000000000000111","CRCF","0","1","1","15","115","13","69","15","0","left","26","26","6.5","6.5"
"6.4.2","Reversal_Task","1","2021-09-22","11:07:15","fixation","Experiment_block_leftstart","+","100","91","33","153","36","112","153","9","27","3","Acquisiton","9","27","0.8000000000000000444","0.2000000000000000111","CRCF","0","1","1","15","115","14","69","15","0","left","27","26","7","7"
"6.4.2","Reversal_Task","1","2021-09-22","11:07:15","presentation_left","Experiment_block_leftstart","binocular.bmp","100","91","33","189","36","112","189","9","27","3","Acquisiton","9","27","0.8000000000000000444","0.2000000000000000111","CRCF","0","1","1","16","116","14","69","16","0","left","27","26","7","7"
"6.4.2","Reversal_Task","1","2021-09-22","11:07:15","fixation","Experiment_block_leftstart","+","100","91","33","189","36","112","189","9","27","3","Acquisiton","9","27","0.8000000000000000444","0.2000000000000000111","CRCF","0","1","1","16","116","15","69","16","0","left","28","26","7.5","7.5"
"6.4.2","Reversal_Task","1","2021-09-22","11:07:15","presentation_left","Experiment_block_leftstart","binocular.bmp","100","91","33","163","36","112","163","9","27","3","Acquisiton","9","27","0.8000000000000000444","0.2000000000000000111","CRIF","0","1","-1","17","117","15","69","17","0","left","28","26","7.5","7.5"
"6.4.2","Reversal_Task","1","2021-09-22","11:07:15","fixation","Experiment_block_leftstart","+","100","91","33","163","36","112","163","9","27","3","Acquisiton","9","27","0.8000000000000000444","0.2000000000000000111","CRIF","0","1","-1","17","117","15","69","17","0","left","29","26","7.5","7.5"
"6.4.2","Reversal_Task","1","2021-09-22","11:07:15","presentation_left","Experiment_block_leftstart","binocular.bmp","100","91","33","231","36","112","231","9","27","3","Acquisiton","9","27","0.8000000000000000444","0.2000000000000000111","CRIF","0","1","-1","18","118","15","69","18","0","left","29","26","7.5","7.5"
"6.4.2","Reversal_Task","1","2021-09-22","11:07:15","fixation","Experiment_block_leftstart","+","100","91","33","231","36","112","231","9","27","3","Acquisiton","9","27","0.8000000000000000444","0.2000000000000000111","CRIF","0","1","-1","18","118","15","69","18","0","left","30","26","7.5","7.5"
"6.4.2","Reversal_Task","1","2021-09-22","11:07:15","presentation_left","Experiment_block_leftstart","binocular.bmp","100","91","33","184","36","112","184","9","27","3","Acquisiton","9","27","0.8000000000000000444","0.2000000000000000111","CRIF","0","1","-1","19","119","15","69","19","0","left","30","26","7.5","7.5"
"6.4.2","Reversal_Task","1","2021-09-22","11:07:15","fixation","Experiment_block_leftstart","+","100","91","33","184","36","112","184","9","27","3","Acquisiton","9","27","0.8000000000000000444","0.2000000000000000111","CRIF","0","1","-1","19","119","15","69","19","0","left","31","26","7.5","7.5"
"6.4.2","Reversal_Task","1","2021-09-22","11:07:15","presentation_left","Experiment_block_leftstart","binocular.bmp","100","91","33","130","36","112","130","9","27","3","Acquisiton","9","27","0.8000000000000000444","0.2000000000000000111","CRIF","0","1","-1","20","120","15","69","20","0","left","31","26","7.5","7.5"
"6.4.2","Reversal_Task","1","2021-09-22","11:07:15","fixation","Experiment_block_leftstart","+","100","91","33","130","36","112","130","9","27","3","Acquisiton","9","27","0.8000000000000000444","0.2000000000000000111","CRIF","0","1","-1","20","120","15","69","20","0","left","32","26","7.5","7.5"
"6.4.2","Reversal_Task","1","2021-09-22","11:07:15","presentation_left","Experiment_block_leftstart","binocular.bmp","100","91","33","25","36","112","25","9","27","3","Acquisiton","9","27","0.8000000000000000444","0.2000000000000000111","CRIF","0","1","-1","21","121","15","69","21","0","left","32","26","7.5","7.5"
"6.4.2","Reversal_Task","1","2021-09-22","11:07:15","fixation","Experiment_block_leftstart","+","100","91","33","25","36","112","25","9","27","3","Acquisiton","9","27","0.8000000000000000444","0.2000000000000000111","CRIF","0","1","-1","21","121","15","69","21","0","left","33","26","7.5","7.5"
"6.4.2","Reversal_Task","1","2021-09-22","11:07:15","presentation_left","Experiment_block_leftstart","binocular.bmp","100","91","33","3","36","112","3","9","27","3","Acquisiton","9","27","0.8000000000000000444","0.2000000000000000111","CRCF","0","1","1","22","122","15","69","22","0","left","33","26","7.5","7.5"
"6.4.2","Reversal_Task","1","2021-09-22","11:07:15","fixation","Experiment_block_leftstart","+","100","91","33","3","36","112","3","9","27","3","Acquisiton","9","27","0.8000000000000000444","0.2000000000000000111","CRCF","0","1","1","22","122","16","69","22","0","left","34","26","8","8"
"6.4.2","Reversal_Task","1","2021-09-22","11:07:15","presentation_left","Experiment_block_leftstart","binocular.bmp","100","91","33","6","36","112","6","9","27","3","Acquisiton","9","27","0.8000000000000000444","0.2000000000000000111","CRCF","0","1","1","23","123","16","69","23","0","left","34","26","8","8"
"6.4.2","Reversal_Task","1","2021-09-22","11:07:15","fixation","Experiment_block_leftstart","+","100","91","33","6","36","112","6","9","27","3","Acquisiton","9","27","0.8000000000000000444","0.2000000000000000111","CRCF","0","1","1","23","123","17","69","23","0","left","35","26","8.5","8.5"
"6.4.2","Reversal_Task","1","2021-09-22","11:07:15","presentation_left","Experiment_block_leftstart","binocular.bmp","100","91","33","55","36","112","55","9","27","3","Acquisiton","9","27","0.8000000000000000444","0.2000000000000000111","CRIF","0","1","-1","24","124","17","69","24","0","left","35","26","8.5","8.5"
"6.4.2","Reversal_Task","1","2021-09-22","11:07:15","fixation","Experiment_block_leftstart","+","100","91","33","55","36","112","55","9","27","3","Acquisiton","9","27","0.8000000000000000444","0.2000000000000000111","CRIF","0","1","-1","24","124","17","69","24","0","left","36","26","8.5","8.5"
"6.4.2","Reversal_Task","1","2021-09-22","11:07:15","presentation_left","Experiment_block_leftstart","binocular.bmp","100","91","33","199","36","112","199","9","27","3","Acquisiton","9","27","0.8000000000000000444","0.2000000000000000111","CRCF","0","1","1","25","125","17","69","25","0","left","36","26","8.5","8.5"
"6.4.2","Reversal_Task","1","2021-09-22","11:07:15","fixation","Experiment_block_leftstart","+","100","91","33","199","36","112","199","9","27","3","Acquisiton","9","27","0.8000000000000000444","0.2000000000000000111","CRCF","0","1","1","25","125","18","69","25","0","left","37","26","9","9"
"6.4.2","Reversal_Task","1","2021-09-22","11:07:15","presentation_left","Experiment_block_leftstart","binocular.bmp","100","91","33","156","36","112","156","9","27","3","Acquisiton","9","27","0.8000000000000000444","0.2000000000000000111","CRCF","0","1","1","26","126","18","69","26","0","left","37","26","9","9"
"6.4.2","Reversal_Task","1","2021-09-22","11:07:15","fixation","Experiment_block_leftstart","+","100","91","33","156","36","112","156","9","27","3","Acquisiton","9","27","0.8000000000000000444","0.2000000000000000111","CRCF","0","1","1","26","126","19","69","26","0","left","38","26","9.5","9.5"
"6.4.2","Reversal_Task","1","2021-09-22","11:07:15","presentation_right","Experiment_block_leftstart","binocular.bmp","100","0","33","156","33","111","111","9","27","3","Reversal","9","27","0.2000000000000000111","0.8000000000000000444","IRCF","0","-1","-1","27","127","19","69","27","0","right","38","26","9.5","9.5"
"6.4.2","Reversal_Task","1","2021-09-22","11:07:15","fixation","Experiment_block_leftstart","+","100","0","33","156","33","111","111","9","27","3","Reversal","9","27","0.2000000000000000111","0.8000000000000000444","IRCF","0","-1","-1","27","127","20","69","27","0","right","0","26","10","10"
"6.4.2","Reversal_Task","1","2021-09-22","11:07:15","presentation_right","Experiment_block_leftstart","binocular.bmp","100","0","33","156","33","182","182","9","27","3","Reversal","9","27","0.2000000000000000111","0.8000000000000000444","IRCF","0","-1","-1","28","128","20","69","28","0","right","0","26","10","10"
"6.4.2","Reversal_Task","1","2021-09-22","11:07:15","fixation","Experiment_block_leftstart","+","100","0","33","156","33","182","182","9","27","3","Reversal","9","27","0.2000000000000000111","0.8000000000000000444","IRCF","0","-1","-1","28","128","21","69","28","0","right","0","26","10.5","10.5"
"6.4.2","Reversal_Task","1","2021-09-22","11:07:15","presentation_right","Experiment_block_leftstart","binocular.bmp","100","0","33","156","33","154","154","9","27","3","Reversal","9","27","0.2000000000000000111","0.8000000000000000444","IRIF","0","-1","1","29","129","21","69","29","0","right","0","26","10.5","10.5"
"6.4.2","Reversal_Task","1","2021-09-22","11:07:15","fixation","Experiment_block_leftstart","+","100","0","33","156","33","154","154","9","27","3","Reversal","9","27","0.2000000000000000111","0.8000000000000000444","IRIF","0","-1","1","29","129","21","69","29","0","right","0","26","10.5","10.5"
"6.4.2","Reversal_Task","1","2021-09-22","11:07:15","presentation_right","Experiment_block_leftstart","binocular.bmp","100","0","33","156","33","127","127","9","27","3","Reversal","9","27","0.2000000000000000111","0.8000000000000000444","IRIF","0","-1","1","30","130","21","69","30","0","right","0","26","10.5","10.5"
"6.4.2","Reversal_Task","1","2021-09-22","11:07:15","fixation","Experiment_block_leftstart","+","100","0","33","156","33","127","127","9","27","3","Reversal","9","27","0.2000000000000000111","0.8000000000000000444","IRIF","0","-1","1","30","130","21","69","30","0","right","0","26","10.5","10.5"
"6.4.2","Reversal_Task","1","2021-09-22","11:07:15","presentation_right","Experiment_block_leftstart","binocular.bmp","100","0","33","156","33","133","133","9","27","3","Reversal","9","27","0.2000000000000000111","0.8000000000000000444","IRIF","0","-1","1","31","131","21","69","31","0","right","0","26","10.5","10.5"
"6.4.2","Reversal_Task","1","2021-09-22","11:07:15","fixation","Experiment_block_leftstart","+","100","0","33","156","33","133","133","9","27","3","Reversal","9","27","0.2000000000000000111","0.8000000000000000444","IRIF","0","-1","1","31","131","21","69","31","0","right","0","26","10.5","10.5"
"6.4.2","Reversal_Task","1","2021-09-22","11:07:15","presentation_right","Experiment_block_leftstart","binocular.bmp","100","0","33","156","33","99","99","9","27","3","Reversal","9","27","0.2000000000000000111","0.8000000000000000444","IRIF","0","-1","1","32","132","21","69","32","0","right","0","26","10.5","10.5"
"6.4.2","Reversal_Task","1","2021-09-22","11:07:15","fixation","Experiment_block_leftstart","+","100","0","33","156","33","99","99","9","27","3","Reversal","9","27","0.2000000000000000111","0.8000000000000000444","IRIF","0","-1","1","32","132","21","69","32","0","right","0","26","10.5","10.5"
"6.4.2","Reversal_Task","1","2021-09-22","11:07:15","presentation_right","Experiment_block_leftstart","binocular.bmp","100","0","33","156","33","65","65","9","27","3","Reversal","9","27","0.2000000000000000111","0.8000000000000000444","IRIF","0","-1","1","33","133","21","69","33","0","right","0","26","10.5","10.5"
"6.4.2","Reversal_Task","1","2021-09-22","11:07:15","fixation","Experiment_block_leftstart","+","100","0","33","156","33","65","65","9","27","3","Reversal","9","27","0.2000000000000000111","0.8000000000000000444","IRIF","0","-1","1","33","133","21","69","33","0","right","0","26","10.5","10.5"
"6.4.2","Reversal_Task","1","2021-09-22","11:07:15","presentation_right","Experiment_block_leftstart","binocular.bmp","100","0","33","156","33","138","138","9","27","3","Reversal","9","27","0.2000000000000000111","0.8000000000000000444","IRIF","0","-1","1","34","134","21","69","34","0","right","0","26","10.5","10.5"
"6.4.2","Reversal_Task","1","2021-09-22","11:07:15","fixation","Experiment_block_leftstart","+","100","0","33","156","33","138","138","9","27","3","Reversal","9","27","0.2000000000000000111","0.8000000000000000444","IRIF","0","-1","1","34","134","21","69","34","0","right","0","26","10.5","10.5"
"6.4.2","Reversal_Task","1","2021-09-22","11:07:15","presentation_right","Experiment_block_leftstart","binocular.bmp","100","11","33","156","36","200","200","9","27","3","Reversal","9","27","0.2000000000000000111","0.8000000000000000444","CRCF","0","1","1","35","135","21","69","34","1","right","0","26","10.5","10.5"
"6.4.2","Reversal_Task","1","2021-09-22","11:07:15","fixation","Experiment_block_leftstart","+","100","11","33","156","36","200","200","9","27","3","Reversal","9","27","0.2000000000000000111","0.8000000000000000444","CRCF","0","1","1","35","135","22","69","34","1","right","1","26","11","11"
"6.4.2","Reversal_Task","1","2021-09-22","11:07:15","presentation_right","Experiment_block_leftstart","binocular.bmp","100","20","33","156","36","91","91","9","27","3","Reversal","9","27","0.2000000000000000111","0.8000000000000000444","CRIF","0","1","-1","36","136","22","69","34","2","right","1","26","11","11"
"6.4.2","Reversal_Task","1","2021-09-22","11:07:15","fixation","Experiment_block_leftstart","+","100","20","33","156","36","91","91","9","27","3","Reversal","9","27","0.2000000000000000111","0.8000000000000000444","CRIF","0","1","-1","36","136","22","69","34","2","right","2","26","11","11"
"6.4.2","Reversal_Task","1","2021-09-22","11:07:15","presentation_right","Experiment_block_leftstart","binocular.bmp","100","27","33","156","36","226","226","9","27","3","Reversal","9","27","0.2000000000000000111","0.8000000000000000444","CRCF","0","1","1","37","137","22","69","34","3","right","2","26","11","11"
"6.4.2","Reversal_Task","1","2021-09-22","11:07:15","fixation","Experiment_block_leftstart","+","100","27","33","156","36","226","226","9","27","3","Reversal","9","27","0.2000000000000000111","0.8000000000000000444","CRCF","0","1","1","37","137","23","69","34","3","right","3","26","11.5","11.5"
"6.4.2","Reversal_Task","1","2021-09-22","11:07:15","presentation_right","Experiment_block_leftstart","binocular.bmp","100","33","33","156","36","116","116","9","27","3","Reversal","9","27","0.2000000000000000111","0.8000000000000000444","CRCF","0","1","1","38","138","23","69","34","4","right","3","26","11.5","11.5"
"6.4.2","Reversal_Task","1","2021-09-22","11:07:15","fixation","Experiment_block_leftstart","+","100","33","33","156","36","116","116","9","27","3","Reversal","9","27","0.2000000000000000111","0.8000000000000000444","CRCF","0","1","1","38","138","24","69","34","4","right","4","26","12","12"
"6.4.2","Reversal_Task","1","2021-09-22","11:07:15","presentation_right","Experiment_block_leftstart","binocular.bmp","100","38","33","156","36","225","225","9","27","3","Reversal","9","27","0.2000000000000000111","0.8000000000000000444","CRCF","0","1","1","39","139","24","69","34","5","right","4","26","12","12"
"6.4.2","Reversal_Task","1","2021-09-22","11:07:15","fixation","Experiment_block_leftstart","+","100","38","33","156","36","225","225","9","27","3","Reversal","9","27","0.2000000000000000111","0.8000000000000000444","CRCF","0","1","1","39","139","25","69","34","5","right","5","26","12.5","12.5"
"6.4.2","Reversal_Task","1","2021-09-22","11:07:15","presentation_right","Experiment_block_leftstart","binocular.bmp","100","42","33","156","36","228","228","9","27","3","Reversal","9","27","0.2000000000000000111","0.8000000000000000444","CRCF","0","1","1","40","140","25","69","34","6","right","5","26","12.5","12.5"
"6.4.2","Reversal_Task","1","2021-09-22","11:07:15","fixation","Experiment_block_leftstart","+","100","42","33","156","36","228","228","9","27","3","Reversal","9","27","0.2000000000000000111","0.8000000000000000444","CRCF","0","1","1","40","140","26","69","34","6","right","6","26","13","13"
"6.4.2","Reversal_Task","1","2021-09-22","11:07:15","presentation_right","Experiment_block_leftstart","binocular.bmp","100","46","33","156","36","205","205","9","27","3","Reversal","9","27","0.2000000000000000111","0.8000000000000000444","CRCF","0","1","1","41","141","26","69","34","7","right","6","26","13","13"
"6.4.2","Reversal_Task","1","2021-09-22","11:07:15","fixation","Experiment_block_leftstart","+","100","46","33","156","36","205","205","9","27","3","Reversal","9","27","0.2000000000000000111","0.8000000000000000444","CRCF","0","1","1","41","141","27","69","34","7","right","7","26","13.5","13.5"
"6.4.2","Reversal_Task","1","2021-09-22","11:07:15","presentation_right","Experiment_block_leftstart","binocular.bmp","100","50","33","156","36","40","40","9","27","3","Reversal","9","27","0.2000000000000000111","0.8000000000000000444","CRCF","0","1","1","42","142","27","69","34","8","right","7","26","13.5","13.5"
"6.4.2","Reversal_Task","1","2021-09-22","11:07:15","fixation","Experiment_block_leftstart","+","100","50","33","156","36","40","40","9","27","3","Reversal","9","27","0.2000000000000000111","0.8000000000000000444","CRCF","0","1","1","42","142","28","69","34","8","right","8","26","14","14"
"6.4.2","Reversal_Task","1","2021-09-22","11:07:15","presentation_right","Experiment_block_leftstart","binocular.bmp","100","52","33","156","36","57","57","9","27","3","Reversal","9","27","0.2000000000000000111","0.8000000000000000444","CRIF","0","1","-1","43","143","28","69","34","9","right","8","26","14","14"
"6.4.2","Reversal_Task","1","2021-09-22","11:07:15","fixation","Experiment_block_leftstart","+","100","52","33","156","36","57","57","9","27","3","Reversal","9","27","0.2000000000000000111","0.8000000000000000444","CRIF","0","1","-1","43","143","28","69","34","9","right","9","26","14","14"
"6.4.2","Reversal_Task","1","2021-09-22","11:07:15","presentation_right","Experiment_block_leftstart","binocular.bmp","100","55","33","156","36","1","1","9","27","3","Reversal","9","27","0.2000000000000000111","0.8000000000000000444","CRCF","0","1","1","44","144","28","69","34","10","right","9","26","14","14"
"6.4.2","Reversal_Task","1","2021-09-22","11:07:15","fixation","Experiment_block_leftstart","+","100","55","33","156","36","1","1","9","27","3","Reversal","9","27","0.2000000000000000111","0.8000000000000000444","CRCF","0","1","1","44","144","29","69","34","10","right","10","26","14.5","14.5"
"6.4.2","Reversal_Task","1","2021-09-22","11:07:15","presentation_right","Experiment_block_leftstart","binocular.bmp","100","57","33","156","36","43","43","9","27","3","Reversal","9","27","0.2000000000000000111","0.8000000000000000444","CRCF","0","1","1","45","145","29","69","34","11","right","10","26","14.5","14.5"
"6.4.2","Reversal_Task","1","2021-09-22","11:07:15","fixation","Experiment_block_leftstart","+","100","57","33","156","36","43","43","9","27","3","Reversal","9","27","0.2000000000000000111","0.8000000000000000444","CRCF","0","1","1","45","145","30","69","34","11","right","11","26","15","15"
"6.4.2","Reversal_Task","1","2021-09-22","11:07:15","presentation_right","Experiment_block_leftstart","binocular.bmp","100","60","33","156","36","181","181","9","27","3","Reversal","9","27","0.2000000000000000111","0.8000000000000000444","CRCF","0","1","1","46","146","30","69","34","12","right","11","26","15","15"
"6.4.2","Reversal_Task","1","2021-09-22","11:07:15","fixation","Experiment_block_leftstart","+","100","60","33","156","36","181","181","9","27","3","Reversal","9","27","0.2000000000000000111","0.8000000000000000444","CRCF","0","1","1","46","146","31","69","34","12","right","12","26","15.5","15.5"
"6.4.2","Reversal_Task","1","2021-09-22","11:07:15","presentation_right","Experiment_block_leftstart","binocular.bmp","100","61","33","156","36","70","70","9","27","3","Reversal","9","27","0.2000000000000000111","0.8000000000000000444","CRCF","0","1","1","47","147","31","69","34","13","right","12","26","15.5","15.5"
"6.4.2","Reversal_Task","1","2021-09-22","11:07:15","fixation","Experiment_block_leftstart","+","100","61","33","156","36","70","70","9","27","3","Reversal","9","27","0.2000000000000000111","0.8000000000000000444","CRCF","0","1","1","47","147","32","69","34","13","right","13","26","16","16"
"6.4.2","Reversal_Task","1","2021-09-22","11:07:15","presentation_right","Experiment_block_leftstart","binocular.bmp","100","63","33","156","36","120","120","9","27","3","Reversal","9","27","0.2000000000000000111","0.8000000000000000444","CRCF","0","1","1","48","148","32","69","34","14","right","13","26","16","16"
"6.4.2","Reversal_Task","1","2021-09-22","11:07:15","fixation","Experiment_block_leftstart","+","100","63","33","156","36","120","120","9","27","3","Reversal","9","27","0.2000000000000000111","0.8000000000000000444","CRCF","0","1","1","48","148","33","69","34","14","right","14","26","16.5","16.5"
"6.4.2","Reversal_Task","1","2021-09-22","11:07:15","presentation_right","Experiment_block_leftstart","binocular.bmp","100","65","33","156","36","127","127","9","27","3","Reversal","9","27","0.2000000000000000111","0.8000000000000000444","CRCF","0","1","1","49","149","33","69","34","15","right","14","26","16.5","16.5"
"6.4.2","Reversal_Task","1","2021-09-22","11:07:15","fixation","Experiment_block_leftstart","+","100","65","33","156","36","127","127","9","27","3","Reversal","9","27","0.2000000000000000111","0.8000000000000000444","CRCF","0","1","1","49","149","34","69","34","15","right","15","26","17","17"
"6.4.2","Reversal_Task","1","2021-09-22","11:07:15","presentation_right","Experiment_block_leftstart","binocular.bmp","100","66","33","156","36","92","92","9","27","3","Reversal","9","27","0.2000000000000000111","0.8000000000000000444","CRCF","0","1","1","50","150","34","69","34","16","right","15","26","17","17"
"6.4.2","Reversal_Task","1","2021-09-22","11:07:15","fixation","Experiment_block_leftstart","+","100","66","33","156","36","92","92","9","27","4","Reversal","9","27","0.2000000000000000111","0.8000000000000000444","CRCF","0","1","1","50","150","35","69","34","16","right","16","26","17.5","17.5"
"6.4.2","Reversal_Task","1","2021-09-22","11:07:15","reset_trial","Experiment_block_leftstart","Press SPACE to continue","100","66","33","156","36","92","92","9","27","4","Reversal","9","27","0.2000000000000000111","0.8000000000000000444","CRCF","0","1","1","50","150","0","104","0","0","right","16","30","0","0"
"6.4.2","Reversal_Task","1","2021-09-22","11:07:15","presentation_left","Experiment_block_leftstart","wheelbarrow.bmp","0","66","36","38","36","92","38","10","20","4","Acquisiton","10","20","0.8000000000000000444","0.2000000000000000111","IRIF","0","-1","1","1","151","0","104","0","1","left","16","30","0","0"
"6.4.2","Reversal_Task","1","2021-09-22","11:07:15","fixation","Experiment_block_leftstart","+","0","66","36","38","36","92","38","10","20","4","Acquisiton","10","20","0.8000000000000000444","0.2000000000000000111","IRIF","0","-1","1","1","151","0","104","0","1","left","0","30","0","0"
"6.4.2","Reversal_Task","1","2021-09-22","11:07:15","presentation_left","Experiment_block_leftstart","wheelbarrow.bmp","0","66","36","207","36","92","207","10","20","4","Acquisiton","10","20","0.8000000000000000444","0.2000000000000000111","IRIF","0","-1","1","2","152","0","104","0","2","left","0","30","0","0"
"6.4.2","Reversal_Task","1","2021-09-22","11:07:15","fixation","Experiment_block_leftstart","+","0","66","36","207","36","92","207","10","20","4","Acquisiton","10","20","0.8000000000000000444","0.2000000000000000111","IRIF","0","-1","1","2","152","0","104","0","2","left","0","30","0","0"
"6.4.2","Reversal_Task","1","2021-09-22","11:07:15","presentation_left","Experiment_block_leftstart","wheelbarrow.bmp","0","66","36","136","36","92","136","10","20","4","Acquisiton","10","20","0.8000000000000000444","0.2000000000000000111","IRIF","0","-1","1","3","153","0","104","0","3","left","0","30","0","0"
"6.4.2","Reversal_Task","1","2021-09-22","11:07:15","fixation","Experiment_block_leftstart","+","0","66","36","136","36","92","136","10","20","4","Acquisiton","10","20","0.8000000000000000444","0.2000000000000000111","IRIF","0","-1","1","3","153","0","104","0","3","left","0","30","0","0"
"6.4.2","Reversal_Task","1","2021-09-22","11:07:15","presentation_left","Experiment_block_leftstart","wheelbarrow.bmp","25","66","33","6","36","92","6","10","20","4","Acquisiton","10","20","0.8000000000000000444","0.2000000000000000111","CRCF","0","1","1","4","154","0","104","1","3","left","0","30","0","0"
"6.4.2","Reversal_Task","1","2021-09-22","11:07:15","fixation","Experiment_block_leftstart","+","25","66","33","6","36","92","6","10","20","4","Acquisiton","10","20","0.8000000000000000444","0.2000000000000000111","CRCF","0","1","1","4","154","1","104","1","3","left","1","30","0.5","0.5"
"6.4.2","Reversal_Task","1","2021-09-22","11:07:15","presentation_left","Experiment_block_leftstart","wheelbarrow.bmp","40","66","33","139","36","92","139","10","20","4","Acquisiton","10","20","0.8000000000000000444","0.2000000000000000111","CRCF","0","1","1","5","155","1","104","2","3","left","1","30","0.5","0.5"
"6.4.2","Reversal_Task","1","2021-09-22","11:07:15","fixation","Experiment_block_leftstart","+","40","66","33","139","36","92","139","10","20","4","Acquisiton","10","20","0.8000000000000000444","0.2000000000000000111","CRCF","0","1","1","5","155","2","104","2","3","left","2","30","1","1"
"6.4.2","Reversal_Task","1","2021-09-22","11:07:15","presentation_left","Experiment_block_leftstart","wheelbarrow.bmp","50","66","33","183","36","92","183","10","20","4","Acquisiton","10","20","0.8000000000000000444","0.2000000000000000111","CRCF","0","1","1","6","156","2","104","3","3","left","2","30","1","1"
"6.4.2","Reversal_Task","1","2021-09-22","11:07:15","fixation","Experiment_block_leftstart","+","50","66","33","183","36","92","183","10","20","4","Acquisiton","10","20","0.8000000000000000444","0.2000000000000000111","CRCF","0","1","1","6","156","3","104","3","3","left","3","30","1.5","1.5"
"6.4.2","Reversal_Task","1","2021-09-22","11:07:15","presentation_left","Experiment_block_leftstart","wheelbarrow.bmp","57","66","33","115","36","92","115","10","20","4","Acquisiton","10","20","0.8000000000000000444","0.2000000000000000111","CRCF","0","1","1","7","157","3","104","4","3","left","3","30","1.5","1.5"
"6.4.2","Reversal_Task","1","2021-09-22","11:07:15","fixation","Experiment_block_leftstart","+","57","66","33","115","36","92","115","10","20","4","Acquisiton","10","20","0.8000000000000000444","0.2000000000000000111","CRCF","0","1","1","7","157","4","104","4","3","left","4","30","2","2"
"6.4.2","Reversal_Task","1","2021-09-22","11:07:15","presentation_left","Experiment_block_leftstart","wheelbarrow.bmp","62","66","33","386","36","92","386","10","20","4","Acquisiton","10","20","0.8000000000000000444","0.2000000000000000111","CRCF","0","1","1","8","158","4","104","5","3","left","4","30","2","2"
"6.4.2","Reversal_Task","1","2021-09-22","11:07:15","fixation","Experiment_block_leftstart","+","62","66","33","386","36","92","386","10","20","4","Acquisiton","10","20","0.8000000000000000444","0.2000000000000000111","CRCF","0","1","1","8","158","5","104","5","3","left","5","30","2.5","2.5"
"6.4.2","Reversal_Task","1","2021-09-22","11:07:15","presentation_left","Experiment_block_leftstart","wheelbarrow.bmp","66","66","33","85","36","92","85","10","20","4","Acquisiton","10","20","0.8000000000000000444","0.2000000000000000111","CRIF","0","1","-1","9","159","5","104","6","3","left","5","30","2.5","2.5"
"6.4.2","Reversal_Task","1","2021-09-22","11:07:15","fixation","Experiment_block_leftstart","+","66","66","33","85","36","92","85","10","20","4","Acquisiton","10","20","0.8000000000000000444","0.2000000000000000111","CRIF","0","1","-1","9","159","5","104","6","3","left","6","30","2.5","2.5"
"6.4.2","Reversal_Task","1","2021-09-22","11:07:15","presentation_left","Experiment_block_leftstart","wheelbarrow.bmp","70","66","33","381","36","92","381","10","20","4","Acquisiton","10","20","0.8000000000000000444","0.2000000000000000111","CRCF","0","1","1","10","160","5","104","7","3","left","6","30","2.5","2.5"
"6.4.2","Reversal_Task","1","2021-09-22","11:07:15","fixation","Experiment_block_leftstart","+","70","66","33","381","36","92","381","10","20","4","Acquisiton","10","20","0.8000000000000000444","0.2000000000000000111","CRCF","0","1","1","10","160","6","104","7","3","left","7","30","3","3"
"6.4.2","Reversal_Task","1","2021-09-22","11:07:15","presentation_left","Experiment_block_leftstart","wheelbarrow.bmp","72","66","33","81","36","92","81","10","20","4","Acquisiton","10","20","0.8000000000000000444","0.2000000000000000111","CRCF","0","1","1","11","161","6","104","8","3","left","7","30","3","3"
"6.4.2","Reversal_Task","1","2021-09-22","11:07:15","fixation","Experiment_block_leftstart","+","72","66","33","81","36","92","81","10","20","4","Acquisiton","10","20","0.8000000000000000444","0.2000000000000000111","CRCF","0","1","1","11","161","7","104","8","3","left","8","30","3.5","3.5"
"6.4.2","Reversal_Task","1","2021-09-22","11:07:15","presentation_left","Experiment_block_leftstart","wheelbarrow.bmp","75","66","33","112","36","92","112","10","20","4","Acquisiton","10","20","0.8000000000000000444","0.2000000000000000111","CRCF","0","1","1","12","162","7","104","9","3","left","8","30","3.5","3.5"
"6.4.2","Reversal_Task","1","2021-09-22","11:07:15","fixation","Experiment_block_leftstart","+","75","66","33","112","36","92","112","10","20","4","Acquisiton","10","20","0.8000000000000000444","0.2000000000000000111","CRCF","0","1","1","12","162","8","104","9","3","left","9","30","4","4"
