"build","experimentName","subject","date","time","trialcode","blockcode","stimulusitem1","trial.choice.percentcorrect","trial.choice.latency","trial.choice.response","picture.correctStim.currentvalue","picture.incorrectStim.currentvalue","block_number","task_phase","index_correctChoice","index_incorrectChoice","correctChoicePosition","rightleftcorrect","correctKey","incorrectKey","percentTrialsCorrectFeedback_correctStim","percentTrialsCorrectFeedback_incorrectStim","responseAndFeedbackCategory","isThisTrialPractice","isResponseCorrect","isFeedbackAccurate","trial_number","total_trialnum","numbercorrectfeedback","numbercorrectfeedback_block","totalcorrect","consecutivecorrect","reversalnumber","totalearnings","centsearned"
"6.4.2","Reversal_Task","378965","2021-09-28","16:19:32","choice","Experiment_block_start","books.bmp","100","489","33","36","8","1","Acquisiton","36","8","2","right","36","33","0.6999999999999999556","0.2999999999999999889","IRIF","0","-1","1","1","1","0","0","6","0","19","0","0"
"6.4.2","Reversal_Task","378965","2021-09-28","16:19:32","fixation","Experiment_block_start","+","100","489","33","36","8","1","Acquisiton","36","8","2","right","36","33","0.6999999999999999556","0.2999999999999999889","IRIF","0","-1","1","1","1","0","0","6","0","19","0","0"
"6.4.2","Reversal_Task","378965","2021-09-28","16:19:32","choice","Experiment_block_start","books.bmp","100","266","36","36","8","1","Acquisiton","36","8","1","left","33","36","0.6999999999999999556","0.2999999999999999889","IRIF","0","-1","1","2","2","0","0","6","0","19","0","0"
"6.4.2","Reversal_Task","378965","2021-09-28","16:19:32","fixation","Experiment_block_start","+","100","266","36","36","8","1","Acquisiton","36","8","1","left","33","36","0.6999999999999999556","0.2999999999999999889","IRIF","0","-1","1","2","2","0","0","6","0","19","0","0"
"6.4.2","Reversal_Task","378965","2021-09-28","16:19:32","choice","Experiment_block_start","books.bmp","100","345","36","36","8","1","Acquisiton","36","8","2","right","36","33","0.6999999999999999556","0.2999999999999999889","CRIF","0","1","-1","3","3","0","0","6","0","19","0","0"
"6.4.2","Reversal_Task","378965","2021-09-28","16:19:32","fixation","Experiment_block_start","+","100","345","36","36","8","1","Acquisiton","36","8","2","right","36","33","0.6999999999999999556","0.2999999999999999889","CRIF","0","1","-1","3","3","0","0","7","1","19","0","0"
"6.4.2","Reversal_Task","378965","2021-09-28","16:19:32","choice","Experiment_block_start","books.bmp","100","357","36","36","8","1","Acquisiton","36","8","2","right","36","33","0.6999999999999999556","0.2999999999999999889","CRIF","0","1","-1","4","4","0","0","7","1","19","0","0"
"6.4.2","Reversal_Task","378965","2021-09-28","16:19:32","fixation","Experiment_block_start","+","100","357","36","36","8","1","Acquisiton","36","8","2","right","36","33","0.6999999999999999556","0.2999999999999999889","CRIF","0","1","-1","4","4","0","0","8","2","19","0","0"
"6.4.2","Reversal_Task","378965","2021-09-28","16:19:32","choice","Experiment_block_start","books.bmp","100","354","36","36","8","1","Acquisiton","36","8","2","right","36","33","0.6999999999999999556","0.2999999999999999889","CRIF","0","1","-1","5","5","0","0","8","2","19","0","0"
"6.4.2","Reversal_Task","378965","2021-09-28","16:19:32","fixation","Experiment_block_start","+","100","354","36","36","8","1","Acquisiton","36","8","2","right","36","33","0.6999999999999999556","0.2999999999999999889","CRIF","0","1","-1","5","5","0","0","9","3","19","0","0"
"6.4.2","Reversal_Task","378965","2021-09-28","16:19:32","choice","Experiment_block_start","books.bmp","100","427","36","36","8","1","Acquisiton","36","8","1","left","33","36","0.6999999999999999556","0.2999999999999999889","IRCF","0","-1","-1","6","6","0","0","9","3","19","0","0"
"6.4.2","Reversal_Task","378965","2021-09-28","16:19:32","fixation","Experiment_block_start","+","100","427","36","36","8","1","Acquisiton","36","8","1","left","33","36","0.6999999999999999556","0.2999999999999999889","IRCF","0","-1","-1","6","6","1","1","9","0","19","0.5","0.5"
"6.4.2","Reversal_Task","378965","2021-09-28","16:19:32","choice","Experiment_block_start","books.bmp","100","357","36","36","8","1","Acquisiton","36","8","1","left","33","36","0.6999999999999999556","0.2999999999999999889","IRIF","0","-1","1","7","7","1","1","9","0","19","0.5","0.5"
"6.4.2","Reversal_Task","378965","2021-09-28","16:19:32","fixation","Experiment_block_start","+","100","357","36","36","8","1","Acquisiton","36","8","1","left","33","36","0.6999999999999999556","0.2999999999999999889","IRIF","0","-1","1","7","7","1","1","9","0","19","0.5","0.5"
"6.4.2","Reversal_Task","378965","2021-09-28","16:19:32","choice","Experiment_block_start","books.bmp","100","387","33","36","8","1","Acquisiton","36","8","2","right","36","33","0.6999999999999999556","0.2999999999999999889","IRIF","0","-1","1","8","8","1","1","9","0","19","0.5","0.5"
"6.4.2","Reversal_Task","378965","2021-09-28","16:19:32","fixation","Experiment_block_start","+","100","387","33","36","8","1","Acquisiton","36","8","2","right","36","33","0.6999999999999999556","0.2999999999999999889","IRIF","0","-1","1","8","8","1","1","9","0","19","0.5","0.5"
"6.4.2","Reversal_Task","378965","2021-09-28","16:19:32","choice","Experiment_block_start","books.bmp","100","301","33","36","8","1","Acquisiton","36","8","2","right","36","33","0.6999999999999999556","0.2999999999999999889","IRIF","0","-1","1","9","9","1","1","9","0","19","0.5","0.5"
"6.4.2","Reversal_Task","378965","2021-09-28","16:19:32","fixation","Experiment_block_start","+","100","301","33","36","8","1","Acquisiton","36","8","2","right","36","33","0.6999999999999999556","0.2999999999999999889","IRIF","0","-1","1","9","9","1","1","9","0","19","0.5","0.5"
"6.4.2","Reversal_Task","378965","2021-09-28","16:19:32","choice","Experiment_block_start","books.bmp","100","274","33","36","8","1","Acquisiton","36","8","2","right","36","33","0.6999999999999999556","0.2999999999999999889","IRIF","0","-1","1","10","10","1","1","9","0","19","0.5","0.5"
"6.4.2","Reversal_Task","378965","2021-09-28","16:19:32","fixation","Experiment_block_start","+","100","274","33","36","8","1","Acquisiton","36","8","2","right","36","33","0.6999999999999999556","0.2999999999999999889","IRIF","0","-1","1","10","10","1","1","9","0","19","0.5","0.5"
"6.4.2","Reversal_Task","378965","2021-09-28","16:19:32","choice","Experiment_block_start","books.bmp","100","174","33","36","8","1","Acquisiton","36","8","1","left","33","36","0.6999999999999999556","0.2999999999999999889","CRCF","0","1","1","11","11","1","1","9","0","19","0.5","0.5"
"6.4.2","Reversal_Task","378965","2021-09-28","16:19:32","fixation","Experiment_block_start","+","100","174","33","36","8","1","Acquisiton","36","8","1","left","33","36","0.6999999999999999556","0.2999999999999999889","CRCF","0","1","1","11","11","2","2","10","1","19","1","1"
"6.4.2","Reversal_Task","378965","2021-09-28","16:19:32","choice","Experiment_block_start","books.bmp","100","389","33","36","8","1","Acquisiton","36","8","2","right","36","33","0.6999999999999999556","0.2999999999999999889","IRCF","0","-1","-1","12","12","2","2","10","1","19","1","1"
"6.4.2","Reversal_Task","378965","2021-09-28","16:19:32","fixation","Experiment_block_start","+","100","389","33","36","8","1","Acquisiton","36","8","2","right","36","33","0.6999999999999999556","0.2999999999999999889","IRCF","0","-1","-1","12","12","3","3","10","0","19","1.5","1.5"
"6.4.2","Reversal_Task","378965","2021-09-28","16:19:32","choice","Experiment_block_start","books.bmp","100","421","33","36","8","1","Acquisiton","36","8","1","left","33","36","0.6999999999999999556","0.2999999999999999889","CRCF","0","1","1","13","13","3","3","10","0","19","1.5","1.5"
"6.4.2","Reversal_Task","378965","2021-09-28","16:19:32","fixation","Experiment_block_start","+","100","421","33","36","8","1","Acquisiton","36","8","1","left","33","36","0.6999999999999999556","0.2999999999999999889","CRCF","0","1","1","13","13","4","4","11","1","19","2","2"
"6.4.2","Reversal_Task","378965","2021-09-28","16:19:32","choice","Experiment_block_start","books.bmp","100","336","33","36","8","1","Acquisiton","36","8","1","left","33","36","0.6999999999999999556","0.2999999999999999889","CRIF","0","1","-1","14","14","4","4","11","1","19","2","2"
"6.4.2","Reversal_Task","378965","2021-09-28","16:19:32","fixation","Experiment_block_start","+","100","336","33","36","8","1","Acquisiton","36","8","1","left","33","36","0.6999999999999999556","0.2999999999999999889","CRIF","0","1","-1","14","14","4","4","12","2","19","2","2"
"6.4.2","Reversal_Task","378965","2021-09-28","16:19:32","choice","Experiment_block_start","books.bmp","100","232","36","36","8","1","Acquisiton","36","8","1","left","33","36","0.6999999999999999556","0.2999999999999999889","IRIF","0","-1","1","15","15","4","4","12","2","19","2","2"
"6.4.2","Reversal_Task","378965","2021-09-28","16:19:32","fixation","Experiment_block_start","+","100","232","36","36","8","1","Acquisiton","36","8","1","left","33","36","0.6999999999999999556","0.2999999999999999889","IRIF","0","-1","1","15","15","4","4","12","0","19","2","2"
"6.4.2","Reversal_Task","378965","2021-09-28","16:19:32","choice","Experiment_block_start","books.bmp","100","240","33","36","8","1","Acquisiton","36","8","1","left","33","36","0.6999999999999999556","0.2999999999999999889","CRCF","0","1","1","16","16","4","4","12","0","19","2","2"
"6.4.2","Reversal_Task","378965","2021-09-28","16:19:32","fixation","Experiment_block_start","+","100","240","33","36","8","1","Acquisiton","36","8","1","left","33","36","0.6999999999999999556","0.2999999999999999889","CRCF","0","1","1","16","16","5","5","13","1","19","2.5","2.5"
"6.4.2","Reversal_Task","378965","2021-09-28","16:19:32","choice","Experiment_block_start","books.bmp","100","430","36","36","8","1","Acquisiton","36","8","2","right","36","33","0.6999999999999999556","0.2999999999999999889","CRCF","0","1","1","17","17","5","5","13","1","19","2.5","2.5"
"6.4.2","Reversal_Task","378965","2021-09-28","16:19:32","fixation","Experiment_block_start","+","100","430","36","36","8","1","Acquisiton","36","8","2","right","36","33","0.6999999999999999556","0.2999999999999999889","CRCF","0","1","1","17","17","6","6","14","2","19","3","3"
"6.4.2","Reversal_Task","378965","2021-09-28","16:19:32","choice","Experiment_block_start","books.bmp","100","343","36","36","8","1","Acquisiton","36","8","2","right","36","33","0.6999999999999999556","0.2999999999999999889","CRCF","0","1","1","18","18","6","6","14","2","19","3","3"
"6.4.2","Reversal_Task","378965","2021-09-28","16:19:32","fixation","Experiment_block_start","+","100","343","36","36","8","1","Acquisiton","36","8","2","right","36","33","0.6999999999999999556","0.2999999999999999889","CRCF","0","1","1","18","18","7","7","15","3","19","3.5","3.5"
"6.4.2","Reversal_Task","378965","2021-09-28","16:19:32","choice","Experiment_block_start","books.bmp","100","356","36","36","8","1","Acquisiton","36","8","2","right","36","33","0.6999999999999999556","0.2999999999999999889","CRCF","0","1","1","19","19","7","7","15","3","19","3.5","3.5"
"6.4.2","Reversal_Task","378965","2021-09-28","16:19:32","fixation","Experiment_block_start","+","100","356","36","36","8","1","Acquisiton","36","8","2","right","36","33","0.6999999999999999556","0.2999999999999999889","CRCF","0","1","1","19","19","8","8","16","4","19","4","4"
"6.4.2","Reversal_Task","378965","2021-09-28","16:19:32","choice","Experiment_block_start","skate.bmp","100","296","36","8","36","1","Reversal","8","36","1","left","33","36","0.6999999999999999556","0.2999999999999999889","IRCF","0","-1","-1","20","20","8","8","16","4","19","4","4"
"6.4.2","Reversal_Task","378965","2021-09-28","16:19:32","fixation","Experiment_block_start","+","100","296","36","8","36","1","Reversal","8","36","1","left","33","36","0.6999999999999999556","0.2999999999999999889","IRCF","0","-1","-1","20","20","9","9","16","0","19","4.5","4.5"
"6.4.2","Reversal_Task","378965","2021-09-28","16:19:32","choice","Experiment_block_start","skate.bmp","100","478","33","8","36","1","Reversal","8","36","2","right","36","33","0.6999999999999999556","0.2999999999999999889","IRIF","0","-1","1","21","21","9","9","16","0","19","4.5","4.5"
"6.4.2","Reversal_Task","378965","2021-09-28","16:19:32","fixation","Experiment_block_start","+","100","478","33","8","36","1","Reversal","8","36","2","right","36","33","0.6999999999999999556","0.2999999999999999889","IRIF","0","-1","1","21","21","9","9","16","0","19","4.5","4.5"
"6.4.2","Reversal_Task","378965","2021-09-28","16:19:32","choice","Experiment_block_start","skate.bmp","100","492","33","8","36","1","Reversal","8","36","1","left","33","36","0.6999999999999999556","0.2999999999999999889","CRIF","0","1","-1","22","22","9","9","16","0","19","4.5","4.5"
"6.4.2","Reversal_Task","378965","2021-09-28","16:19:32","fixation","Experiment_block_start","+","100","492","33","8","36","1","Reversal","8","36","1","left","33","36","0.6999999999999999556","0.2999999999999999889","CRIF","0","1","-1","22","22","9","9","17","1","19","4.5","4.5"
"6.4.2","Reversal_Task","378965","2021-09-28","16:19:32","choice","Experiment_block_start","skate.bmp","100","415","33","8","36","1","Reversal","8","36","1","left","33","36","0.6999999999999999556","0.2999999999999999889","CRCF","0","1","1","23","23","9","9","17","1","19","4.5","4.5"
"6.4.2","Reversal_Task","378965","2021-09-28","16:19:32","fixation","Experiment_block_start","+","100","415","33","8","36","1","Reversal","8","36","1","left","33","36","0.6999999999999999556","0.2999999999999999889","CRCF","0","1","1","23","23","10","10","18","2","19","5","5"
"6.4.2","Reversal_Task","378965","2021-09-28","16:19:32","choice","Experiment_block_start","skate.bmp","100","406","36","8","36","1","Reversal","8","36","2","right","36","33","0.6999999999999999556","0.2999999999999999889","CRCF","0","1","1","24","24","10","10","18","2","19","5","5"
"6.4.2","Reversal_Task","378965","2021-09-28","16:19:32","fixation","Experiment_block_start","+","100","406","36","8","36","1","Reversal","8","36","2","right","36","33","0.6999999999999999556","0.2999999999999999889","CRCF","0","1","1","24","24","11","11","19","3","19","5.5","5.5"
"6.4.2","Reversal_Task","378965","2021-09-28","16:19:32","choice","Experiment_block_start","skate.bmp","100","338","36","8","36","1","Reversal","8","36","2","right","36","33","0.6999999999999999556","0.2999999999999999889","CRCF","0","1","1","25","25","11","11","19","3","19","5.5","5.5"
"6.4.2","Reversal_Task","378965","2021-09-28","16:19:32","fixation","Experiment_block_start","+","100","338","36","8","36","1","Reversal","8","36","2","right","36","33","0.6999999999999999556","0.2999999999999999889","CRCF","0","1","1","25","25","12","12","20","4","19","6","6"
"6.4.2","Reversal_Task","378965","2021-09-28","16:19:32","choice","Experiment_block_start","skate.bmp","100","441","33","8","36","1","Reversal","8","36","1","left","33","36","0.6999999999999999556","0.2999999999999999889","CRCF","0","1","1","26","26","12","12","20","4","19","6","6"
"6.4.2","Reversal_Task","378965","2021-09-28","16:19:32","fixation","Experiment_block_start","+","100","441","33","8","36","1","Reversal","8","36","1","left","33","36","0.6999999999999999556","0.2999999999999999889","CRCF","0","1","1","26","26","13","13","21","5","19","6.5","6.5"
"6.4.2","Reversal_Task","378965","2021-09-28","16:19:32","choice","Experiment_block_start","skate.bmp","100","443","36","8","36","1","Reversal","8","36","2","right","36","33","0.6999999999999999556","0.2999999999999999889","CRCF","0","1","1","27","27","13","13","21","5","19","6.5","6.5"
"6.4.2","Reversal_Task","378965","2021-09-28","16:19:32","fixation","Experiment_block_start","+","100","443","36","8","36","1","Reversal","8","36","2","right","36","33","0.6999999999999999556","0.2999999999999999889","CRCF","0","1","1","27","27","14","14","22","6","19","7","7"
"6.4.2","Reversal_Task","378965","2021-09-28","16:19:32","choice","Experiment_block_start","skate.bmp","100","342","36","8","36","1","Reversal","8","36","1","left","33","36","0.6999999999999999556","0.2999999999999999889","IRIF","0","-1","1","28","28","14","14","22","6","19","7","7"
"6.4.2","Reversal_Task","378965","2021-09-28","16:19:32","fixation","Experiment_block_start","+","100","342","36","8","36","1","Reversal","8","36","1","left","33","36","0.6999999999999999556","0.2999999999999999889","IRIF","0","-1","1","28","28","14","14","22","0","19","7","7"
"6.4.2","Reversal_Task","378965","2021-09-28","16:19:32","choice","Experiment_block_start","skate.bmp","100","355","33","8","36","1","Reversal","8","36","2","right","36","33","0.6999999999999999556","0.2999999999999999889","IRIF","0","-1","1","29","29","14","14","22","0","19","7","7"
"6.4.2","Reversal_Task","378965","2021-09-28","16:19:32","fixation","Experiment_block_start","+","100","355","33","8","36","1","Reversal","8","36","2","right","36","33","0.6999999999999999556","0.2999999999999999889","IRIF","0","-1","1","29","29","14","14","22","0","19","7","7"
"6.4.2","Reversal_Task","378965","2021-09-28","16:19:32","choice","Experiment_block_start","skate.bmp","100","339","33","8","36","1","Reversal","8","36","1","left","33","36","0.6999999999999999556","0.2999999999999999889","CRIF","0","1","-1","30","30","14","14","22","0","19","7","7"
"6.4.2","Reversal_Task","378965","2021-09-28","16:19:32","fixation","Experiment_block_start","+","100","339","33","8","36","1","Reversal","8","36","1","left","33","36","0.6999999999999999556","0.2999999999999999889","CRIF","0","1","-1","30","30","14","14","23","1","19","7","7"
"6.4.2","Reversal_Task","378965","2021-09-28","16:19:32","choice","Experiment_block_start","skate.bmp","100","205","36","8","36","1","Reversal","8","36","1","left","33","36","0.6999999999999999556","0.2999999999999999889","IRCF","0","-1","-1","31","31","14","14","23","1","19","7","7"
"6.4.2","Reversal_Task","378965","2021-09-28","16:19:32","fixation","Experiment_block_start","+","100","205","36","8","36","1","Reversal","8","36","1","left","33","36","0.6999999999999999556","0.2999999999999999889","IRCF","0","-1","-1","31","31","15","15","23","0","19","7.5","7.5"
"6.4.2","Reversal_Task","378965","2021-09-28","16:19:32","choice","Experiment_block_start","skate.bmp","100","317","33","8","36","1","Reversal","8","36","1","left","33","36","0.6999999999999999556","0.2999999999999999889","CRCF","0","1","1","32","32","15","15","23","0","19","7.5","7.5"
"6.4.2","Reversal_Task","378965","2021-09-28","16:19:32","fixation","Experiment_block_start","+","100","317","33","8","36","1","Reversal","8","36","1","left","33","36","0.6999999999999999556","0.2999999999999999889","CRCF","0","1","1","32","32","16","16","24","1","19","8","8"
"6.4.2","Reversal_Task","378965","2021-09-28","16:19:32","choice","Experiment_block_start","skate.bmp","100","363","33","8","36","1","Reversal","8","36","1","left","33","36","0.6999999999999999556","0.2999999999999999889","CRIF","0","1","-1","33","33","16","16","24","1","19","8","8"
"6.4.2","Reversal_Task","378965","2021-09-28","16:19:32","fixation","Experiment_block_start","+","100","363","33","8","36","1","Reversal","8","36","1","left","33","36","0.6999999999999999556","0.2999999999999999889","CRIF","0","1","-1","33","33","16","16","25","2","19","8","8"
"6.4.2","Reversal_Task","378965","2021-09-28","16:19:32","choice","Experiment_block_start","skate.bmp","100","390","36","8","36","1","Reversal","8","36","2","right","36","33","0.6999999999999999556","0.2999999999999999889","CRCF","0","1","1","34","34","16","16","25","2","19","8","8"
"6.4.2","Reversal_Task","378965","2021-09-28","16:19:32","fixation","Experiment_block_start","+","100","390","36","8","36","1","Reversal","8","36","2","right","36","33","0.6999999999999999556","0.2999999999999999889","CRCF","0","1","1","34","34","17","17","26","3","19","8.5","8.5"
"6.4.2","Reversal_Task","378965","2021-09-28","16:19:32","choice","Experiment_block_start","skate.bmp","100","356","36","8","36","1","Reversal","8","36","2","right","36","33","0.6999999999999999556","0.2999999999999999889","CRCF","0","1","1","35","35","17","17","26","3","19","8.5","8.5"
"6.4.2","Reversal_Task","378965","2021-09-28","16:19:32","fixation","Experiment_block_start","+","100","356","36","8","36","1","Reversal","8","36","2","right","36","33","0.6999999999999999556","0.2999999999999999889","CRCF","0","1","1","35","35","18","18","27","4","19","9","9"
"6.4.2","Reversal_Task","378965","2021-09-28","16:19:32","choice","Experiment_block_start","skate.bmp","100","382","36","8","36","1","Reversal","8","36","2","right","36","33","0.6999999999999999556","0.2999999999999999889","CRCF","0","1","1","36","36","18","18","27","4","19","9","9"
"6.4.2","Reversal_Task","378965","2021-09-28","16:19:32","fixation","Experiment_block_start","+","100","382","36","8","36","1","Reversal","8","36","2","right","36","33","0.6999999999999999556","0.2999999999999999889","CRCF","0","1","1","36","36","19","19","28","5","19","9.5","9.5"
"6.4.2","Reversal_Task","378965","2021-09-28","16:19:32","choice","Experiment_block_start","skate.bmp","100","318","36","8","36","1","Reversal","8","36","2","right","36","33","0.6999999999999999556","0.2999999999999999889","CRCF","0","1","1","37","37","19","19","28","5","19","9.5","9.5"
"6.4.2","Reversal_Task","378965","2021-09-28","16:19:32","fixation","Experiment_block_start","+","100","318","36","8","36","1","Reversal","8","36","2","right","36","33","0.6999999999999999556","0.2999999999999999889","CRCF","0","1","1","37","37","20","20","29","6","19","10","10"
"6.4.2","Reversal_Task","378965","2021-09-28","16:19:32","choice","Experiment_block_start","skate.bmp","100","439","33","8","36","1","Reversal","8","36","1","left","33","36","0.6999999999999999556","0.2999999999999999889","CRCF","0","1","1","38","38","20","20","29","6","19","10","10"
"6.4.2","Reversal_Task","378965","2021-09-28","16:19:32","fixation","Experiment_block_start","+","100","439","33","8","36","1","Reversal","8","36","1","left","33","36","0.6999999999999999556","0.2999999999999999889","CRCF","0","1","1","38","38","21","21","30","7","19","10.5","10.5"
"6.4.2","Reversal_Task","378965","2021-09-28","16:19:32","choice","Experiment_block_start","skate.bmp","100","445","36","8","36","1","Reversal","8","36","2","right","36","33","0.6999999999999999556","0.2999999999999999889","CRCF","0","1","1","39","39","21","21","30","7","19","10.5","10.5"
"6.4.2","Reversal_Task","378965","2021-09-28","16:19:32","fixation","Experiment_block_start","+","100","445","36","8","36","1","Reversal","8","36","2","right","36","33","0.6999999999999999556","0.2999999999999999889","CRCF","0","1","1","39","39","22","22","31","8","19","11","11"
"6.4.2","Reversal_Task","378965","2021-09-28","16:19:32","choice","Experiment_block_start","skate.bmp","100","446","33","8","36","1","Reversal","8","36","1","left","33","36","0.6999999999999999556","0.2999999999999999889","CRIF","0","1","-1","40","40","22","22","31","8","19","11","11"
"6.4.2","Reversal_Task","378965","2021-09-28","16:19:32","fixation","Experiment_block_start","+","100","446","33","8","36","1","Reversal","8","36","1","left","33","36","0.6999999999999999556","0.2999999999999999889","CRIF","0","1","-1","40","40","22","22","32","9","19","11","11"
"6.4.2","Reversal_Task","378965","2021-09-28","16:19:32","reset_trial","Experiment_block_start","Press SPACE to continue","100","446","33","8","36","2","Reversal","8","36","1","left","33","36","0.6999999999999999556","0.2999999999999999889","CRIF","0","1","-1","0","40","22","22","32","0","14","11","11"
"6.4.2","Reversal_Task","378965","2021-09-28","16:19:32","choice","Experiment_block_start","clipboard.bmp","100","449","33","30","14","2","Acquisiton","30","14","2","right","36","33","0.6999999999999999556","0.2999999999999999889","IRCF","0","-1","-1","1","41","22","0","32","0","14","11","0"
"6.4.2","Reversal_Task","378965","2021-09-28","16:19:32","fixation","Experiment_block_start","+","100","449","33","30","14","2","Acquisiton","30","14","2","right","36","33","0.6999999999999999556","0.2999999999999999889","IRCF","0","-1","-1","1","41","23","1","32","0","14","11.5","0.5"
"6.4.2","Reversal_Task","378965","2021-09-28","16:19:32","choice","Experiment_block_start","clipboard.bmp","100","377","33","30","14","2","Acquisiton","30","14","1","left","33","36","0.6999999999999999556","0.2999999999999999889","CRCF","0","1","1","2","42","23","1","32","0","14","11.5","0.5"
"6.4.2","Reversal_Task","378965","2021-09-28","16:19:32","fixation","Experiment_block_start","+","100","377","33","30","14","2","Acquisiton","30","14","1","left","33","36","0.6999999999999999556","0.2999999999999999889","CRCF","0","1","1","2","42","24","2","33","1","14","12","1"
"6.4.2","Reversal_Task","378965","2021-09-28","16:19:32","choice","Experiment_block_start","clipboard.bmp","100","326","33","30","14","2","Acquisiton","30","14","1","left","33","36","0.6999999999999999556","0.2999999999999999889","CRCF","0","1","1","3","43","24","2","33","1","14","12","1"
"6.4.2","Reversal_Task","378965","2021-09-28","16:19:32","fixation","Experiment_block_start","+","100","326","33","30","14","2","Acquisiton","30","14","1","left","33","36","0.6999999999999999556","0.2999999999999999889","CRCF","0","1","1","3","43","25","3","34","2","14","12.5","1.5"
"6.4.2","Reversal_Task","378965","2021-09-28","16:19:32","choice","Experiment_block_start","clipboard.bmp","100","415","33","30","14","2","Acquisiton","30","14","2","right","36","33","0.6999999999999999556","0.2999999999999999889","IRIF","0","-1","1","4","44","25","3","34","2","14","12.5","1.5"
"6.4.2","Reversal_Task","378965","2021-09-28","16:19:32","fixation","Experiment_block_start","+","100","415","33","30","14","2","Acquisiton","30","14","2","right","36","33","0.6999999999999999556","0.2999999999999999889","IRIF","0","-1","1","4","44","25","3","34","0","14","12.5","1.5"
"6.4.2","Reversal_Task","378965","2021-09-28","16:19:32","choice","Experiment_block_start","clipboard.bmp","100","421","33","30","14","2","Acquisiton","30","14","1","left","33","36","0.6999999999999999556","0.2999999999999999889","CRCF","0","1","1","5","45","25","3","34","0","14","12.5","1.5"
"6.4.2","Reversal_Task","378965","2021-09-28","16:19:32","fixation","Experiment_block_start","+","100","421","33","30","14","2","Acquisiton","30","14","1","left","33","36","0.6999999999999999556","0.2999999999999999889","CRCF","0","1","1","5","45","26","4","35","1","14","13","2"
"6.4.2","Reversal_Task","378965","2021-09-28","16:19:32","choice","Experiment_block_start","clipboard.bmp","100","414","36","30","14","2","Acquisiton","30","14","2","right","36","33","0.6999999999999999556","0.2999999999999999889","CRCF","0","1","1","6","46","26","4","35","1","14","13","2"
"6.4.2","Reversal_Task","378965","2021-09-28","16:19:32","fixation","Experiment_block_start","+","100","414","36","30","14","2","Acquisiton","30","14","2","right","36","33","0.6999999999999999556","0.2999999999999999889","CRCF","0","1","1","6","46","27","5","36","2","14","13.5","2.5"
"6.4.2","Reversal_Task","378965","2021-09-28","16:19:32","choice","Experiment_block_start","clipboard.bmp","100","285","36","30","14","2","Acquisiton","30","14","2","right","36","33","0.6999999999999999556","0.2999999999999999889","CRIF","0","1","-1","7","47","27","5","36","2","14","13.5","2.5"
"6.4.2","Reversal_Task","378965","2021-09-28","16:19:32","fixation","Experiment_block_start","+","100","285","36","30","14","2","Acquisiton","30","14","2","right","36","33","0.6999999999999999556","0.2999999999999999889","CRIF","0","1","-1","7","47","27","5","37","3","14","13.5","2.5"
"6.4.2","Reversal_Task","378965","2021-09-28","16:19:32","choice","Experiment_block_start","clipboard.bmp","100","425","33","30","14","2","Acquisiton","30","14","1","left","33","36","0.6999999999999999556","0.2999999999999999889","CRCF","0","1","1","8","48","27","5","37","3","14","13.5","2.5"
"6.4.2","Reversal_Task","378965","2021-09-28","16:19:32","fixation","Experiment_block_start","+","100","425","33","30","14","2","Acquisiton","30","14","1","left","33","36","0.6999999999999999556","0.2999999999999999889","CRCF","0","1","1","8","48","28","6","38","4","14","14","3"
"6.4.2","Reversal_Task","378965","2021-09-28","16:19:32","choice","Experiment_block_start","clipboard.bmp","100","314","33","30","14","2","Acquisiton","30","14","1","left","33","36","0.6999999999999999556","0.2999999999999999889","CRCF","0","1","1","9","49","28","6","38","4","14","14","3"
"6.4.2","Reversal_Task","378965","2021-09-28","16:19:32","fixation","Experiment_block_start","+","100","314","33","30","14","2","Acquisiton","30","14","1","left","33","36","0.6999999999999999556","0.2999999999999999889","CRCF","0","1","1","9","49","29","7","39","5","14","14.5","3.5"
"6.4.2","Reversal_Task","378965","2021-09-28","16:19:32","choice","Experiment_block_start","clipboard.bmp","100","446","36","30","14","2","Acquisiton","30","14","2","right","36","33","0.6999999999999999556","0.2999999999999999889","CRCF","0","1","1","10","50","29","7","39","5","14","14.5","3.5"
"6.4.2","Reversal_Task","378965","2021-09-28","16:19:32","fixation","Experiment_block_start","+","100","446","36","30","14","2","Acquisiton","30","14","2","right","36","33","0.6999999999999999556","0.2999999999999999889","CRCF","0","1","1","10","50","30","8","40","6","14","15","4"
"6.4.2","Reversal_Task","378965","2021-09-28","16:19:32","choice","Experiment_block_start","clipboard.bmp","100","403","33","30","14","2","Acquisiton","30","14","1","left","33","36","0.6999999999999999556","0.2999999999999999889","CRIF","0","1","-1","11","51","30","8","40","6","14","15","4"
"6.4.2","Reversal_Task","378965","2021-09-28","16:19:32","fixation","Experiment_block_start","+","100","403","33","30","14","2","Acquisiton","30","14","1","left","33","36","0.6999999999999999556","0.2999999999999999889","CRIF","0","1","-1","11","51","30","8","41","7","14","15","4"
"6.4.2","Reversal_Task","378965","2021-09-28","16:19:32","choice","Experiment_block_start","clipboard.bmp","100","428","33","30","14","2","Acquisiton","30","14","2","right","36","33","0.6999999999999999556","0.2999999999999999889","IRIF","0","-1","1","12","52","30","8","41","7","14","15","4"
"6.4.2","Reversal_Task","378965","2021-09-28","16:19:32","fixation","Experiment_block_start","+","100","428","33","30","14","2","Acquisiton","30","14","2","right","36","33","0.6999999999999999556","0.2999999999999999889","IRIF","0","-1","1","12","52","30","8","41","0","14","15","4"
"6.4.2","Reversal_Task","378965","2021-09-28","16:19:32","choice","Experiment_block_start","clipboard.bmp","100","446","33","30","14","2","Acquisiton","30","14","1","left","33","36","0.6999999999999999556","0.2999999999999999889","CRIF","0","1","-1","13","53","30","8","41","0","14","15","4"
"6.4.2","Reversal_Task","378965","2021-09-28","16:19:32","fixation","Experiment_block_start","+","100","446","33","30","14","2","Acquisiton","30","14","1","left","33","36","0.6999999999999999556","0.2999999999999999889","CRIF","0","1","-1","13","53","30","8","42","1","14","15","4"
"6.4.2","Reversal_Task","378965","2021-09-28","16:19:32","choice","Experiment_block_start","clipboard.bmp","100","359","36","30","14","2","Acquisiton","30","14","1","left","33","36","0.6999999999999999556","0.2999999999999999889","IRIF","0","-1","1","14","54","30","8","42","1","14","15","4"
"6.4.2","Reversal_Task","378965","2021-09-28","16:19:32","fixation","Experiment_block_start","+","100","359","36","30","14","2","Acquisiton","30","14","1","left","33","36","0.6999999999999999556","0.2999999999999999889","IRIF","0","-1","1","14","54","30","8","42","0","14","15","4"
"6.4.2","Reversal_Task","378965","2021-09-28","16:19:32","choice","Experiment_block_start","house.bmp","100","670","36","14","30","2","Reversal","14","30","1","left","33","36","0.6999999999999999556","0.2999999999999999889","IRIF","0","-1","1","15","55","30","8","42","0","14","15","4"
"6.4.2","Reversal_Task","378965","2021-09-28","16:19:32","fixation","Experiment_block_start","+","100","670","36","14","30","2","Reversal","14","30","1","left","33","36","0.6999999999999999556","0.2999999999999999889","IRIF","0","-1","1","15","55","30","8","42","0","14","15","4"
"6.4.2","Reversal_Task","378965","2021-09-28","16:19:32","choice","Experiment_block_start","house.bmp","100","442","36","14","30","2","Reversal","14","30","1","left","33","36","0.6999999999999999556","0.2999999999999999889","IRIF","0","-1","1","16","56","30","8","42","0","14","15","4"
"6.4.2","Reversal_Task","378965","2021-09-28","16:19:32","fixation","Experiment_block_start","+","100","442","36","14","30","2","Reversal","14","30","1","left","33","36","0.6999999999999999556","0.2999999999999999889","IRIF","0","-1","1","16","56","30","8","42","0","14","15","4"
"6.4.2","Reversal_Task","378965","2021-09-28","16:19:32","choice","Experiment_block_start","house.bmp","100","549","36","14","30","2","Reversal","14","30","2","right","36","33","0.6999999999999999556","0.2999999999999999889","CRCF","0","1","1","17","57","30","8","42","0","14","15","4"
"6.4.2","Reversal_Task","378965","2021-09-28","16:19:32","fixation","Experiment_block_start","+","100","549","36","14","30","2","Reversal","14","30","2","right","36","33","0.6999999999999999556","0.2999999999999999889","CRCF","0","1","1","17","57","31","9","43","1","14","15.5","4.5"
"6.4.2","Reversal_Task","378965","2021-09-28","16:19:32","choice","Experiment_block_start","house.bmp","100","247","33","14","30","2","Reversal","14","30","1","left","33","36","0.6999999999999999556","0.2999999999999999889","CRCF","0","1","1","18","58","31","9","43","1","14","15.5","4.5"
"6.4.2","Reversal_Task","378965","2021-09-28","16:19:32","fixation","Experiment_block_start","+","100","247","33","14","30","2","Reversal","14","30","1","left","33","36","0.6999999999999999556","0.2999999999999999889","CRCF","0","1","1","18","58","32","10","44","2","14","16","5"
"6.4.2","Reversal_Task","378965","2021-09-28","16:19:32","choice","Experiment_block_start","house.bmp","100","354","33","14","30","2","Reversal","14","30","1","left","33","36","0.6999999999999999556","0.2999999999999999889","CRIF","0","1","-1","19","59","32","10","44","2","14","16","5"
"6.4.2","Reversal_Task","378965","2021-09-28","16:19:32","fixation","Experiment_block_start","+","100","354","33","14","30","2","Reversal","14","30","1","left","33","36","0.6999999999999999556","0.2999999999999999889","CRIF","0","1","-1","19","59","32","10","45","3","14","16","5"
"6.4.2","Reversal_Task","378965","2021-09-28","16:19:32","choice","Experiment_block_start","house.bmp","100","233","36","14","30","2","Reversal","14","30","1","left","33","36","0.6999999999999999556","0.2999999999999999889","IRCF","0","-1","-1","20","60","32","10","45","3","14","16","5"
"6.4.2","Reversal_Task","378965","2021-09-28","16:19:32","fixation","Experiment_block_start","+","100","233","36","14","30","2","Reversal","14","30","1","left","33","36","0.6999999999999999556","0.2999999999999999889","IRCF","0","-1","-1","20","60","33","11","45","0","14","16.5","5.5"
"6.4.2","Reversal_Task","378965","2021-09-28","16:19:32","choice","Experiment_block_start","house.bmp","100","367","36","14","30","2","Reversal","14","30","1","left","33","36","0.6999999999999999556","0.2999999999999999889","IRCF","0","-1","-1","21","61","33","11","45","0","14","16.5","5.5"
"6.4.2","Reversal_Task","378965","2021-09-28","16:19:32","fixation","Experiment_block_start","+","100","367","36","14","30","2","Reversal","14","30","1","left","33","36","0.6999999999999999556","0.2999999999999999889","IRCF","0","-1","-1","21","61","34","12","45","0","14","17","6"
"6.4.2","Reversal_Task","378965","2021-09-28","16:19:32","choice","Experiment_block_start","house.bmp","100","461","33","14","30","2","Reversal","14","30","2","right","36","33","0.6999999999999999556","0.2999999999999999889","IRIF","0","-1","1","22","62","34","12","45","0","14","17","6"
"6.4.2","Reversal_Task","378965","2021-09-28","16:19:32","fixation","Experiment_block_start","+","100","461","33","14","30","2","Reversal","14","30","2","right","36","33","0.6999999999999999556","0.2999999999999999889","IRIF","0","-1","1","22","62","34","12","45","0","14","17","6"
"6.4.2","Reversal_Task","378965","2021-09-28","16:19:32","choice","Experiment_block_start","house.bmp","100","402","36","14","30","2","Reversal","14","30","1","left","33","36","0.6999999999999999556","0.2999999999999999889","IRIF","0","-1","1","23","63","34","12","45","0","14","17","6"
"6.4.2","Reversal_Task","378965","2021-09-28","16:19:32","fixation","Experiment_block_start","+","100","402","36","14","30","2","Reversal","14","30","1","left","33","36","0.6999999999999999556","0.2999999999999999889","IRIF","0","-1","1","23","63","34","12","45","0","14","17","6"
"6.4.2","Reversal_Task","378965","2021-09-28","16:19:32","choice","Experiment_block_start","house.bmp","100","396","33","14","30","2","Reversal","14","30","2","right","36","33","0.6999999999999999556","0.2999999999999999889","IRIF","0","-1","1","24","64","34","12","45","0","14","17","6"
"6.4.2","Reversal_Task","378965","2021-09-28","16:19:32","fixation","Experiment_block_start","+","100","396","33","14","30","2","Reversal","14","30","2","right","36","33","0.6999999999999999556","0.2999999999999999889","IRIF","0","-1","1","24","64","34","12","45","0","14","17","6"
"6.4.2","Reversal_Task","378965","2021-09-28","16:19:32","choice","Experiment_block_start","house.bmp","100","524","33","14","30","2","Reversal","14","30","1","left","33","36","0.6999999999999999556","0.2999999999999999889","CRCF","0","1","1","25","65","34","12","45","0","14","17","6"
"6.4.2","Reversal_Task","378965","2021-09-28","16:19:32","fixation","Experiment_block_start","+","100","524","33","14","30","2","Reversal","14","30","1","left","33","36","0.6999999999999999556","0.2999999999999999889","CRCF","0","1","1","25","65","35","13","46","1","14","17.5","6.5"
"6.4.2","Reversal_Task","378965","2021-09-28","16:19:32","choice","Experiment_block_start","house.bmp","100","373","33","14","30","2","Reversal","14","30","2","right","36","33","0.6999999999999999556","0.2999999999999999889","IRCF","0","-1","-1","26","66","35","13","46","1","14","17.5","6.5"
"6.4.2","Reversal_Task","378965","2021-09-28","16:19:32","fixation","Experiment_block_start","+","100","373","33","14","30","2","Reversal","14","30","2","right","36","33","0.6999999999999999556","0.2999999999999999889","IRCF","0","-1","-1","26","66","36","14","46","0","14","18","7"
"6.4.2","Reversal_Task","378965","2021-09-28","16:19:32","choice","Experiment_block_start","house.bmp","100","438","33","14","30","2","Reversal","14","30","1","left","33","36","0.6999999999999999556","0.2999999999999999889","CRCF","0","1","1","27","67","36","14","46","0","14","18","7"
"6.4.2","Reversal_Task","378965","2021-09-28","16:19:32","fixation","Experiment_block_start","+","100","438","33","14","30","2","Reversal","14","30","1","left","33","36","0.6999999999999999556","0.2999999999999999889","CRCF","0","1","1","27","67","37","15","47","1","14","18.5","7.5"
"6.4.2","Reversal_Task","378965","2021-09-28","16:19:32","choice","Experiment_block_start","house.bmp","100","325","33","14","30","2","Reversal","14","30","1","left","33","36","0.6999999999999999556","0.2999999999999999889","CRIF","0","1","-1","28","68","37","15","47","1","14","18.5","7.5"
"6.4.2","Reversal_Task","378965","2021-09-28","16:19:32","fixation","Experiment_block_start","+","100","325","33","14","30","2","Reversal","14","30","1","left","33","36","0.6999999999999999556","0.2999999999999999889","CRIF","0","1","-1","28","68","37","15","48","2","14","18.5","7.5"
"6.4.2","Reversal_Task","378965","2021-09-28","16:19:32","choice","Experiment_block_start","house.bmp","100","424","36","14","30","2","Reversal","14","30","2","right","36","33","0.6999999999999999556","0.2999999999999999889","CRCF","0","1","1","29","69","37","15","48","2","14","18.5","7.5"
"6.4.2","Reversal_Task","378965","2021-09-28","16:19:32","fixation","Experiment_block_start","+","100","424","36","14","30","2","Reversal","14","30","2","right","36","33","0.6999999999999999556","0.2999999999999999889","CRCF","0","1","1","29","69","38","16","49","3","14","19","8"
"6.4.2","Reversal_Task","378965","2021-09-28","16:19:32","choice","Experiment_block_start","house.bmp","100","324","36","14","30","2","Reversal","14","30","2","right","36","33","0.6999999999999999556","0.2999999999999999889","CRCF","0","1","1","30","70","38","16","49","3","14","19","8"
"6.4.2","Reversal_Task","378965","2021-09-28","16:19:32","fixation","Experiment_block_start","+","100","324","36","14","30","2","Reversal","14","30","2","right","36","33","0.6999999999999999556","0.2999999999999999889","CRCF","0","1","1","30","70","39","17","50","4","14","19.5","8.5"
"6.4.2","Reversal_Task","378965","2021-09-28","16:19:32","choice","Experiment_block_start","house.bmp","100","342","36","14","30","2","Reversal","14","30","2","right","36","33","0.6999999999999999556","0.2999999999999999889","CRCF","0","1","1","31","71","39","17","50","4","14","19.5","8.5"
"6.4.2","Reversal_Task","378965","2021-09-28","16:19:32","fixation","Experiment_block_start","+","100","342","36","14","30","2","Reversal","14","30","2","right","36","33","0.6999999999999999556","0.2999999999999999889","CRCF","0","1","1","31","71","40","18","51","5","14","20","9"
"6.4.2","Reversal_Task","378965","2021-09-28","16:19:32","choice","Experiment_block_start","house.bmp","100","411","33","14","30","2","Reversal","14","30","1","left","33","36","0.6999999999999999556","0.2999999999999999889","CRIF","0","1","-1","32","72","40","18","51","5","14","20","9"
"6.4.2","Reversal_Task","378965","2021-09-28","16:19:32","fixation","Experiment_block_start","+","100","411","33","14","30","2","Reversal","14","30","1","left","33","36","0.6999999999999999556","0.2999999999999999889","CRIF","0","1","-1","32","72","40","18","52","6","14","20","9"
"6.4.2","Reversal_Task","378965","2021-09-28","16:19:32","choice","Experiment_block_start","house.bmp","100","238","36","14","30","2","Reversal","14","30","1","left","33","36","0.6999999999999999556","0.2999999999999999889","IRIF","0","-1","1","33","73","40","18","52","6","14","20","9"
"6.4.2","Reversal_Task","378965","2021-09-28","16:19:32","fixation","Experiment_block_start","+","100","238","36","14","30","2","Reversal","14","30","1","left","33","36","0.6999999999999999556","0.2999999999999999889","IRIF","0","-1","1","33","73","40","18","52","0","14","20","9"
"6.4.2","Reversal_Task","378965","2021-09-28","16:19:32","choice","Experiment_block_start","house.bmp","100","279","33","14","30","2","Reversal","14","30","1","left","33","36","0.6999999999999999556","0.2999999999999999889","CRIF","0","1","-1","34","74","40","18","52","0","14","20","9"
"6.4.2","Reversal_Task","378965","2021-09-28","16:19:32","fixation","Experiment_block_start","+","100","279","33","14","30","2","Reversal","14","30","1","left","33","36","0.6999999999999999556","0.2999999999999999889","CRIF","0","1","-1","34","74","40","18","53","1","14","20","9"
"6.4.2","Reversal_Task","378965","2021-09-28","16:19:32","choice","Experiment_block_start","house.bmp","100","416","33","14","30","2","Reversal","14","30","1","left","33","36","0.6999999999999999556","0.2999999999999999889","CRCF","0","1","1","35","75","40","18","53","1","14","20","9"
"6.4.2","Reversal_Task","378965","2021-09-28","16:19:32","fixation","Experiment_block_start","+","100","416","33","14","30","2","Reversal","14","30","1","left","33","36","0.6999999999999999556","0.2999999999999999889","CRCF","0","1","1","35","75","41","19","54","2","14","20.5","9.5"
"6.4.2","Reversal_Task","378965","2021-09-28","16:19:32","choice","Experiment_block_start","house.bmp","100","393","33","14","30","2","Reversal","14","30","1","left","33","36","0.6999999999999999556","0.2999999999999999889","CRCF","0","1","1","36","76","41","19","54","2","14","20.5","9.5"
"6.4.2","Reversal_Task","378965","2021-09-28","16:19:32","fixation","Experiment_block_start","+","100","393","33","14","30","2","Reversal","14","30","1","left","33","36","0.6999999999999999556","0.2999999999999999889","CRCF","0","1","1","36","76","42","20","55","3","14","21","10"
"6.4.2","Reversal_Task","378965","2021-09-28","16:19:32","choice","Experiment_block_start","house.bmp","100","298","33","14","30","2","Reversal","14","30","2","right","36","33","0.6999999999999999556","0.2999999999999999889","IRIF","0","-1","1","37","77","42","20","55","3","14","21","10"
"6.4.2","Reversal_Task","378965","2021-09-28","16:19:32","fixation","Experiment_block_start","+","100","298","33","14","30","2","Reversal","14","30","2","right","36","33","0.6999999999999999556","0.2999999999999999889","IRIF","0","-1","1","37","77","42","20","55","0","14","21","10"
"6.4.2","Reversal_Task","378965","2021-09-28","16:19:32","choice","Experiment_block_start","house.bmp","100","258","36","14","30","2","Reversal","14","30","2","right","36","33","0.6999999999999999556","0.2999999999999999889","CRIF","0","1","-1","38","78","42","20","55","0","14","21","10"
"6.4.2","Reversal_Task","378965","2021-09-28","16:19:32","fixation","Experiment_block_start","+","100","258","36","14","30","2","Reversal","14","30","2","right","36","33","0.6999999999999999556","0.2999999999999999889","CRIF","0","1","-1","38","78","42","20","56","1","14","21","10"
"6.4.2","Reversal_Task","378965","2021-09-28","16:19:32","choice","Experiment_block_start","house.bmp","100","198","33","14","30","2","Reversal","14","30","1","left","33","36","0.6999999999999999556","0.2999999999999999889","CRCF","0","1","1","39","79","42","20","56","1","14","21","10"
"6.4.2","Reversal_Task","378965","2021-09-28","16:19:32","fixation","Experiment_block_start","+","100","198","33","14","30","2","Reversal","14","30","1","left","33","36","0.6999999999999999556","0.2999999999999999889","CRCF","0","1","1","39","79","43","21","57","2","14","21.5","10.5"
"6.4.2","Reversal_Task","378965","2021-09-28","16:19:32","choice","Experiment_block_start","house.bmp","100","541","33","14","30","2","Reversal","14","30","2","right","36","33","0.6999999999999999556","0.2999999999999999889","IRIF","0","-1","1","40","80","43","21","57","2","14","21.5","10.5"
"6.4.2","Reversal_Task","378965","2021-09-28","16:19:32","fixation","Experiment_block_start","+","100","541","33","14","30","2","Reversal","14","30","2","right","36","33","0.6999999999999999556","0.2999999999999999889","IRIF","0","-1","1","40","80","43","21","57","0","14","21.5","10.5"
"6.4.2","Reversal_Task","378965","2021-09-28","16:19:32","reset_trial","Experiment_block_start","Press SPACE to continue","100","541","33","14","30","3","Reversal","14","30","2","right","36","33","0.6999999999999999556","0.2999999999999999889","IRIF","0","-1","1","0","80","43","21","57","0","26","21.5","10.5"
"6.4.2","Reversal_Task","378965","2021-09-28","16:19:32","choice","Experiment_block_start","truck.bmp","100","428","36","5","31","3","Acquisiton","5","31","2","right","36","33","0.6999999999999999556","0.2999999999999999889","CRIF","0","1","-1","1","81","43","0","57","0","26","21.5","0"
"6.4.2","Reversal_Task","378965","2021-09-28","16:19:32","fixation","Experiment_block_start","+","100","428","36","5","31","3","Acquisiton","5","31","2","right","36","33","0.6999999999999999556","0.2999999999999999889","CRIF","0","1","-1","1","81","43","0","58","1","26","21.5","0"
"6.4.2","Reversal_Task","378965","2021-09-28","16:19:32","choice","Experiment_block_start","truck.bmp","100","238","33","5","31","3","Acquisiton","5","31","2","right","36","33","0.6999999999999999556","0.2999999999999999889","IRIF","0","-1","1","2","82","43","0","58","1","26","21.5","0"
"6.4.2","Reversal_Task","378965","2021-09-28","16:19:32","fixation","Experiment_block_start","+","100","238","33","5","31","3","Acquisiton","5","31","2","right","36","33","0.6999999999999999556","0.2999999999999999889","IRIF","0","-1","1","2","82","43","0","58","0","26","21.5","0"
"6.4.2","Reversal_Task","378965","2021-09-28","16:19:32","choice","Experiment_block_start","truck.bmp","100","158","36","5","31","3","Acquisiton","5","31","1","left","33","36","0.6999999999999999556","0.2999999999999999889","IRCF","0","-1","-1","3","83","43","0","58","0","26","21.5","0"
"6.4.2","Reversal_Task","378965","2021-09-28","16:19:32","fixation","Experiment_block_start","+","100","158","36","5","31","3","Acquisiton","5","31","1","left","33","36","0.6999999999999999556","0.2999999999999999889","IRCF","0","-1","-1","3","83","44","1","58","0","26","22","0.5"
"6.4.2","Reversal_Task","378965","2021-09-28","16:19:32","choice","Experiment_block_start","truck.bmp","100","253","33","5","31","3","Acquisiton","5","31","2","right","36","33","0.6999999999999999556","0.2999999999999999889","IRIF","0","-1","1","4","84","44","1","58","0","26","22","0.5"
"6.4.2","Reversal_Task","378965","2021-09-28","16:19:32","fixation","Experiment_block_start","+","100","253","33","5","31","3","Acquisiton","5","31","2","right","36","33","0.6999999999999999556","0.2999999999999999889","IRIF","0","-1","1","4","84","44","1","58","0","26","22","0.5"
"6.4.2","Reversal_Task","378965","2021-09-28","16:19:32","choice","Experiment_block_start","truck.bmp","100","479","33","5","31","3","Acquisiton","5","31","1","left","33","36","0.6999999999999999556","0.2999999999999999889","CRCF","0","1","1","5","85","44","1","58","0","26","22","0.5"
"6.4.2","Reversal_Task","378965","2021-09-28","16:19:32","fixation","Experiment_block_start","+","100","479","33","5","31","3","Acquisiton","5","31","1","left","33","36","0.6999999999999999556","0.2999999999999999889","CRCF","0","1","1","5","85","45","2","59","1","26","22.5","1"
"6.4.2","Reversal_Task","378965","2021-09-28","16:19:32","choice","Experiment_block_start","truck.bmp","100","359","36","5","31","3","Acquisiton","5","31","2","right","36","33","0.6999999999999999556","0.2999999999999999889","CRCF","0","1","1","6","86","45","2","59","1","26","22.5","1"
"6.4.2","Reversal_Task","378965","2021-09-28","16:19:32","fixation","Experiment_block_start","+","100","359","36","5","31","3","Acquisiton","5","31","2","right","36","33","0.6999999999999999556","0.2999999999999999889","CRCF","0","1","1","6","86","46","3","60","2","26","23","1.5"
"6.4.2","Reversal_Task","378965","2021-09-28","16:19:32","choice","Experiment_block_start","truck.bmp","100","401","36","5","31","3","Acquisiton","5","31","2","right","36","33","0.6999999999999999556","0.2999999999999999889","CRCF","0","1","1","7","87","46","3","60","2","26","23","1.5"
"6.4.2","Reversal_Task","378965","2021-09-28","16:19:32","fixation","Experiment_block_start","+","100","401","36","5","31","3","Acquisiton","5","31","2","right","36","33","0.6999999999999999556","0.2999999999999999889","CRCF","0","1","1","7","87","47","4","61","3","26","23.5","2"
"6.4.2","Reversal_Task","378965","2021-09-28","16:19:32","choice","Experiment_block_start","truck.bmp","100","498","33","5","31","3","Acquisiton","5","31","1","left","33","36","0.6999999999999999556","0.2999999999999999889","CRCF","0","1","1","8","88","47","4","61","3","26","23.5","2"
"6.4.2","Reversal_Task","378965","2021-09-28","16:19:32","fixation","Experiment_block_start","+","100","498","33","5","31","3","Acquisiton","5","31","1","left","33","36","0.6999999999999999556","0.2999999999999999889","CRCF","0","1","1","8","88","48","5","62","4","26","24","2.5"
"6.4.2","Reversal_Task","378965","2021-09-28","16:19:32","choice","Experiment_block_start","truck.bmp","100","331","36","5","31","3","Acquisiton","5","31","2","right","36","33","0.6999999999999999556","0.2999999999999999889","CRCF","0","1","1","9","89","48","5","62","4","26","24","2.5"
"6.4.2","Reversal_Task","378965","2021-09-28","16:19:32","fixation","Experiment_block_start","+","100","331","36","5","31","3","Acquisiton","5","31","2","right","36","33","0.6999999999999999556","0.2999999999999999889","CRCF","0","1","1","9","89","49","6","63","5","26","24.5","3"
"6.4.2","Reversal_Task","378965","2021-09-28","16:19:32","choice","Experiment_block_start","truck.bmp","100","331","36","5","31","3","Acquisiton","5","31","2","right","36","33","0.6999999999999999556","0.2999999999999999889","CRCF","0","1","1","10","90","49","6","63","5","26","24.5","3"
"6.4.2","Reversal_Task","378965","2021-09-28","16:19:32","fixation","Experiment_block_start","+","100","331","36","5","31","3","Acquisiton","5","31","2","right","36","33","0.6999999999999999556","0.2999999999999999889","CRCF","0","1","1","10","90","50","7","64","6","26","25","3.5"
"6.4.2","Reversal_Task","378965","2021-09-28","16:19:32","choice","Experiment_block_start","truck.bmp","100","406","36","5","31","3","Acquisiton","5","31","2","right","36","33","0.6999999999999999556","0.2999999999999999889","CRCF","0","1","1","11","91","50","7","64","6","26","25","3.5"
"6.4.2","Reversal_Task","378965","2021-09-28","16:19:32","fixation","Experiment_block_start","+","100","406","36","5","31","3","Acquisiton","5","31","2","right","36","33","0.6999999999999999556","0.2999999999999999889","CRCF","0","1","1","11","91","51","8","65","7","26","25.5","4"
"6.4.2","Reversal_Task","378965","2021-09-28","16:19:32","choice","Experiment_block_start","truck.bmp","100","449","33","5","31","3","Acquisiton","5","31","1","left","33","36","0.6999999999999999556","0.2999999999999999889","CRIF","0","1","-1","12","92","51","8","65","7","26","25.5","4"
"6.4.2","Reversal_Task","378965","2021-09-28","16:19:32","fixation","Experiment_block_start","+","100","449","33","5","31","3","Acquisiton","5","31","1","left","33","36","0.6999999999999999556","0.2999999999999999889","CRIF","0","1","-1","12","92","51","8","66","8","26","25.5","4"
"6.4.2","Reversal_Task","378965","2021-09-28","16:19:32","choice","Experiment_block_start","truck.bmp","100","398","36","5","31","3","Acquisiton","5","31","2","right","36","33","0.6999999999999999556","0.2999999999999999889","CRCF","0","1","1","13","93","51","8","66","8","26","25.5","4"
"6.4.2","Reversal_Task","378965","2021-09-28","16:19:32","fixation","Experiment_block_start","+","100","398","36","5","31","3","Acquisiton","5","31","2","right","36","33","0.6999999999999999556","0.2999999999999999889","CRCF","0","1","1","13","93","52","9","67","9","26","26","4.5"
"6.4.2","Reversal_Task","378965","2021-09-28","16:19:32","choice","Experiment_block_start","truck.bmp","100","452","33","5","31","3","Acquisiton","5","31","1","left","33","36","0.6999999999999999556","0.2999999999999999889","CRCF","0","1","1","14","94","52","9","67","9","26","26","4.5"
"6.4.2","Reversal_Task","378965","2021-09-28","16:19:32","fixation","Experiment_block_start","+","100","452","33","5","31","3","Acquisiton","5","31","1","left","33","36","0.6999999999999999556","0.2999999999999999889","CRCF","0","1","1","14","94","53","10","68","10","26","26.5","5"
"6.4.2","Reversal_Task","378965","2021-09-28","16:19:32","choice","Experiment_block_start","truck.bmp","100","423","36","5","31","3","Acquisiton","5","31","2","right","36","33","0.6999999999999999556","0.2999999999999999889","CRIF","0","1","-1","15","95","53","10","68","10","26","26.5","5"
"6.4.2","Reversal_Task","378965","2021-09-28","16:19:32","fixation","Experiment_block_start","+","100","423","36","5","31","3","Acquisiton","5","31","2","right","36","33","0.6999999999999999556","0.2999999999999999889","CRIF","0","1","-1","15","95","53","10","69","11","26","26.5","5"
"6.4.2","Reversal_Task","378965","2021-09-28","16:19:32","choice","Experiment_block_start","truck.bmp","100","458","36","5","31","3","Acquisiton","5","31","2","right","36","33","0.6999999999999999556","0.2999999999999999889","CRCF","0","1","1","16","96","53","10","69","11","26","26.5","5"
"6.4.2","Reversal_Task","378965","2021-09-28","16:19:32","fixation","Experiment_block_start","+","100","458","36","5","31","3","Acquisiton","5","31","2","right","36","33","0.6999999999999999556","0.2999999999999999889","CRCF","0","1","1","16","96","54","11","70","12","26","27","5.5"
"6.4.2","Reversal_Task","378965","2021-09-28","16:19:32","choice","Experiment_block_start","truck.bmp","100","534","33","5","31","3","Acquisiton","5","31","1","left","33","36","0.6999999999999999556","0.2999999999999999889","CRCF","0","1","1","17","97","54","11","70","12","26","27","5.5"
"6.4.2","Reversal_Task","378965","2021-09-28","16:19:32","fixation","Experiment_block_start","+","100","534","33","5","31","3","Acquisiton","5","31","1","left","33","36","0.6999999999999999556","0.2999999999999999889","CRCF","0","1","1","17","97","55","12","71","13","26","27.5","6"
"6.4.2","Reversal_Task","378965","2021-09-28","16:19:32","choice","Experiment_block_start","truck.bmp","100","393","33","5","31","3","Acquisiton","5","31","1","left","33","36","0.6999999999999999556","0.2999999999999999889","CRCF","0","1","1","18","98","55","12","71","13","26","27.5","6"
"6.4.2","Reversal_Task","378965","2021-09-28","16:19:32","fixation","Experiment_block_start","+","100","393","33","5","31","3","Acquisiton","5","31","1","left","33","36","0.6999999999999999556","0.2999999999999999889","CRCF","0","1","1","18","98","56","13","72","14","26","28","6.5"
"6.4.2","Reversal_Task","378965","2021-09-28","16:19:32","choice","Experiment_block_start","truck.bmp","100","417","36","5","31","3","Acquisiton","5","31","2","right","36","33","0.6999999999999999556","0.2999999999999999889","CRCF","0","1","1","19","99","56","13","72","14","26","28","6.5"
"6.4.2","Reversal_Task","378965","2021-09-28","16:19:32","fixation","Experiment_block_start","+","100","417","36","5","31","3","Acquisiton","5","31","2","right","36","33","0.6999999999999999556","0.2999999999999999889","CRCF","0","1","1","19","99","57","14","73","15","26","28.5","7"
"6.4.2","Reversal_Task","378965","2021-09-28","16:19:32","choice","Experiment_block_start","truck.bmp","100","348","33","5","31","3","Acquisiton","5","31","1","left","33","36","0.6999999999999999556","0.2999999999999999889","CRIF","0","1","-1","20","100","57","14","73","15","26","28.5","7"
"6.4.2","Reversal_Task","378965","2021-09-28","16:19:32","fixation","Experiment_block_start","+","100","348","33","5","31","3","Acquisiton","5","31","1","left","33","36","0.6999999999999999556","0.2999999999999999889","CRIF","0","1","-1","20","100","57","14","74","16","26","28.5","7"
"6.4.2","Reversal_Task","378965","2021-09-28","16:19:32","choice","Experiment_block_start","truck.bmp","100","450","33","5","31","3","Acquisiton","5","31","1","left","33","36","0.6999999999999999556","0.2999999999999999889","CRCF","0","1","1","21","101","57","14","74","16","26","28.5","7"
"6.4.2","Reversal_Task","378965","2021-09-28","16:19:32","fixation","Experiment_block_start","+","100","450","33","5","31","3","Acquisiton","5","31","1","left","33","36","0.6999999999999999556","0.2999999999999999889","CRCF","0","1","1","21","101","58","15","75","17","26","29","7.5"
"6.4.2","Reversal_Task","378965","2021-09-28","16:19:32","choice","Experiment_block_start","truck.bmp","100","379","36","5","31","3","Acquisiton","5","31","2","right","36","33","0.6999999999999999556","0.2999999999999999889","CRCF","0","1","1","22","102","58","15","75","17","26","29","7.5"
"6.4.2","Reversal_Task","378965","2021-09-28","16:19:32","fixation","Experiment_block_start","+","100","379","36","5","31","3","Acquisiton","5","31","2","right","36","33","0.6999999999999999556","0.2999999999999999889","CRCF","0","1","1","22","102","59","16","76","18","26","29.5","8"
"6.4.2","Reversal_Task","378965","2021-09-28","16:19:32","choice","Experiment_block_start","truck.bmp","100","404","36","5","31","3","Acquisiton","5","31","2","right","36","33","0.6999999999999999556","0.2999999999999999889","CRIF","0","1","-1","23","103","59","16","76","18","26","29.5","8"
"6.4.2","Reversal_Task","378965","2021-09-28","16:19:32","fixation","Experiment_block_start","+","100","404","36","5","31","3","Acquisiton","5","31","2","right","36","33","0.6999999999999999556","0.2999999999999999889","CRIF","0","1","-1","23","103","59","16","77","19","26","29.5","8"
"6.4.2","Reversal_Task","378965","2021-09-28","16:19:32","choice","Experiment_block_start","truck.bmp","100","252","33","5","31","3","Acquisiton","5","31","1","left","33","36","0.6999999999999999556","0.2999999999999999889","CRCF","0","1","1","24","104","59","16","77","19","26","29.5","8"
"6.4.2","Reversal_Task","378965","2021-09-28","16:19:32","fixation","Experiment_block_start","+","100","252","33","5","31","3","Acquisiton","5","31","1","left","33","36","0.6999999999999999556","0.2999999999999999889","CRCF","0","1","1","24","104","60","17","78","20","26","30","8.5"
"6.4.2","Reversal_Task","378965","2021-09-28","16:19:32","choice","Experiment_block_start","truck.bmp","100","253","36","5","31","3","Acquisiton","5","31","1","left","33","36","0.6999999999999999556","0.2999999999999999889","IRIF","0","-1","1","25","105","60","17","78","20","26","30","8.5"
"6.4.2","Reversal_Task","378965","2021-09-28","16:19:32","fixation","Experiment_block_start","+","100","253","36","5","31","3","Acquisiton","5","31","1","left","33","36","0.6999999999999999556","0.2999999999999999889","IRIF","0","-1","1","25","105","60","17","78","0","26","30","8.5"
"6.4.2","Reversal_Task","378965","2021-09-28","16:19:32","choice","Experiment_block_start","truck.bmp","100","306","33","5","31","3","Acquisiton","5","31","1","left","33","36","0.6999999999999999556","0.2999999999999999889","CRIF","0","1","-1","26","106","60","17","78","0","26","30","8.5"
"6.4.2","Reversal_Task","378965","2021-09-28","16:19:32","fixation","Experiment_block_start","+","100","306","33","5","31","3","Acquisiton","5","31","1","left","33","36","0.6999999999999999556","0.2999999999999999889","CRIF","0","1","-1","26","106","60","17","79","1","26","30","8.5"
"6.4.2","Reversal_Task","378965","2021-09-28","16:19:32","choice","Experiment_block_start","keys.bmp","100","404","36","31","5","3","Reversal","31","5","2","right","36","33","0.6999999999999999556","0.2999999999999999889","CRCF","0","1","1","27","107","60","17","79","1","26","30","8.5"
"6.4.2","Reversal_Task","378965","2021-09-28","16:19:32","fixation","Experiment_block_start","+","100","404","36","31","5","3","Reversal","31","5","2","right","36","33","0.6999999999999999556","0.2999999999999999889","CRCF","0","1","1","27","107","61","18","80","2","26","30.5","9"
"6.4.2","Reversal_Task","378965","2021-09-28","16:19:32","choice","Experiment_block_start","keys.bmp","100","375","36","31","5","3","Reversal","31","5","2","right","36","33","0.6999999999999999556","0.2999999999999999889","CRIF","0","1","-1","28","108","61","18","80","2","26","30.5","9"
"6.4.2","Reversal_Task","378965","2021-09-28","16:19:32","fixation","Experiment_block_start","+","100","375","36","31","5","3","Reversal","31","5","2","right","36","33","0.6999999999999999556","0.2999999999999999889","CRIF","0","1","-1","28","108","61","18","81","3","26","30.5","9"
"6.4.2","Reversal_Task","378965","2021-09-28","16:19:32","choice","Experiment_block_start","keys.bmp","100","374","33","31","5","3","Reversal","31","5","1","left","33","36","0.6999999999999999556","0.2999999999999999889","CRCF","0","1","1","29","109","61","18","81","3","26","30.5","9"
"6.4.2","Reversal_Task","378965","2021-09-28","16:19:32","fixation","Experiment_block_start","+","100","374","33","31","5","3","Reversal","31","5","1","left","33","36","0.6999999999999999556","0.2999999999999999889","CRCF","0","1","1","29","109","62","19","82","4","26","31","9.5"
"6.4.2","Reversal_Task","378965","2021-09-28","16:19:32","choice","Experiment_block_start","keys.bmp","100","365","36","31","5","3","Reversal","31","5","2","right","36","33","0.6999999999999999556","0.2999999999999999889","CRCF","0","1","1","30","110","62","19","82","4","26","31","9.5"
"6.4.2","Reversal_Task","378965","2021-09-28","16:19:32","fixation","Experiment_block_start","+","100","365","36","31","5","3","Reversal","31","5","2","right","36","33","0.6999999999999999556","0.2999999999999999889","CRCF","0","1","1","30","110","63","20","83","5","26","31.5","10"
"6.4.2","Reversal_Task","378965","2021-09-28","16:19:32","choice","Experiment_block_start","keys.bmp","100","226","33","31","5","3","Reversal","31","5","2","right","36","33","0.6999999999999999556","0.2999999999999999889","IRCF","0","-1","-1","31","111","63","20","83","5","26","31.5","10"
"6.4.2","Reversal_Task","378965","2021-09-28","16:19:32","fixation","Experiment_block_start","+","100","226","33","31","5","3","Reversal","31","5","2","right","36","33","0.6999999999999999556","0.2999999999999999889","IRCF","0","-1","-1","31","111","64","21","83","0","26","32","10.5"
"6.4.2","Reversal_Task","378965","2021-09-28","16:19:32","choice","Experiment_block_start","keys.bmp","100","371","36","31","5","3","Reversal","31","5","2","right","36","33","0.6999999999999999556","0.2999999999999999889","CRCF","0","1","1","32","112","64","21","83","0","26","32","10.5"
"6.4.2","Reversal_Task","378965","2021-09-28","16:19:32","fixation","Experiment_block_start","+","100","371","36","31","5","3","Reversal","31","5","2","right","36","33","0.6999999999999999556","0.2999999999999999889","CRCF","0","1","1","32","112","65","22","84","1","26","32.5","11"
"6.4.2","Reversal_Task","378965","2021-09-28","16:19:32","choice","Experiment_block_start","keys.bmp","100","383","36","31","5","3","Reversal","31","5","1","left","33","36","0.6999999999999999556","0.2999999999999999889","IRIF","0","-1","1","33","113","65","22","84","1","26","32.5","11"
"6.4.2","Reversal_Task","378965","2021-09-28","16:19:32","fixation","Experiment_block_start","+","100","383","36","31","5","3","Reversal","31","5","1","left","33","36","0.6999999999999999556","0.2999999999999999889","IRIF","0","-1","1","33","113","65","22","84","0","26","32.5","11"
"6.4.2","Reversal_Task","378965","2021-09-28","16:19:32","choice","Experiment_block_start","keys.bmp","100","451","36","31","5","3","Reversal","31","5","2","right","36","33","0.6999999999999999556","0.2999999999999999889","CRCF","0","1","1","34","114","65","22","84","0","26","32.5","11"
"6.4.2","Reversal_Task","378965","2021-09-28","16:19:32","fixation","Experiment_block_start","+","100","451","36","31","5","3","Reversal","31","5","2","right","36","33","0.6999999999999999556","0.2999999999999999889","CRCF","0","1","1","34","114","66","23","85","1","26","33","11.5"
"6.4.2","Reversal_Task","378965","2021-09-28","16:19:32","choice","Experiment_block_start","keys.bmp","100","393","33","31","5","3","Reversal","31","5","1","left","33","36","0.6999999999999999556","0.2999999999999999889","CRCF","0","1","1","35","115","66","23","85","1","26","33","11.5"
"6.4.2","Reversal_Task","378965","2021-09-28","16:19:32","fixation","Experiment_block_start","+","100","393","33","31","5","3","Reversal","31","5","1","left","33","36","0.6999999999999999556","0.2999999999999999889","CRCF","0","1","1","35","115","67","24","86","2","26","33.5","12"
"6.4.2","Reversal_Task","378965","2021-09-28","16:19:32","choice","Experiment_block_start","keys.bmp","100","371","36","31","5","3","Reversal","31","5","2","right","36","33","0.6999999999999999556","0.2999999999999999889","CRCF","0","1","1","36","116","67","24","86","2","26","33.5","12"
"6.4.2","Reversal_Task","378965","2021-09-28","16:19:32","fixation","Experiment_block_start","+","100","371","36","31","5","3","Reversal","31","5","2","right","36","33","0.6999999999999999556","0.2999999999999999889","CRCF","0","1","1","36","116","68","25","87","3","26","34","12.5"
"6.4.2","Reversal_Task","378965","2021-09-28","16:19:32","choice","Experiment_block_start","keys.bmp","100","459","33","31","5","3","Reversal","31","5","1","left","33","36","0.6999999999999999556","0.2999999999999999889","CRIF","0","1","-1","37","117","68","25","87","3","26","34","12.5"
"6.4.2","Reversal_Task","378965","2021-09-28","16:19:32","fixation","Experiment_block_start","+","100","459","33","31","5","3","Reversal","31","5","1","left","33","36","0.6999999999999999556","0.2999999999999999889","CRIF","0","1","-1","37","117","68","25","88","4","26","34","12.5"
"6.4.2","Reversal_Task","378965","2021-09-28","16:19:32","choice","Experiment_block_start","keys.bmp","100","429","36","31","5","3","Reversal","31","5","1","left","33","36","0.6999999999999999556","0.2999999999999999889","IRCF","0","-1","-1","38","118","68","25","88","4","26","34","12.5"
"6.4.2","Reversal_Task","378965","2021-09-28","16:19:32","fixation","Experiment_block_start","+","100","429","36","31","5","3","Reversal","31","5","1","left","33","36","0.6999999999999999556","0.2999999999999999889","IRCF","0","-1","-1","38","118","69","26","88","0","26","34.5","13"
"6.4.2","Reversal_Task","378965","2021-09-28","16:19:32","choice","Experiment_block_start","keys.bmp","100","449","36","31","5","3","Reversal","31","5","1","left","33","36","0.6999999999999999556","0.2999999999999999889","IRCF","0","-1","-1","39","119","69","26","88","0","26","34.5","13"
"6.4.2","Reversal_Task","378965","2021-09-28","16:19:32","fixation","Experiment_block_start","+","100","449","36","31","5","3","Reversal","31","5","1","left","33","36","0.6999999999999999556","0.2999999999999999889","IRCF","0","-1","-1","39","119","70","27","88","0","26","35","13.5"
"6.4.2","Reversal_Task","378965","2021-09-28","16:19:32","choice","Experiment_block_start","keys.bmp","100","345","33","31","5","3","Reversal","31","5","2","right","36","33","0.6999999999999999556","0.2999999999999999889","IRIF","0","-1","1","40","120","70","27","88","0","26","35","13.5"
"6.4.2","Reversal_Task","378965","2021-09-28","16:19:32","fixation","Experiment_block_start","+","100","345","33","31","5","3","Reversal","31","5","2","right","36","33","0.6999999999999999556","0.2999999999999999889","IRIF","0","-1","1","40","120","70","27","88","0","26","35","13.5"
"6.4.2","Reversal_Task","378965","2021-09-28","16:19:32","reset_trial","Experiment_block_start","Press SPACE to continue","100","345","33","31","5","4","Reversal","31","5","2","right","36","33","0.6999999999999999556","0.2999999999999999889","IRIF","0","-1","1","0","120","70","27","88","0","24","35","13.5"
"6.4.2","Reversal_Task","378965","2021-09-28","16:19:32","choice","Experiment_block_start","car.bmp","100","494","33","37","4","4","Acquisiton","37","4","1","left","33","36","0.6999999999999999556","0.2999999999999999889","CRCF","0","1","1","1","121","70","0","88","0","24","35","0"
"6.4.2","Reversal_Task","378965","2021-09-28","16:19:32","fixation","Experiment_block_start","+","100","494","33","37","4","4","Acquisiton","37","4","1","left","33","36","0.6999999999999999556","0.2999999999999999889","CRCF","0","1","1","1","121","71","1","89","1","24","35.5","0.5"
"6.4.2","Reversal_Task","378965","2021-09-28","16:19:32","choice","Experiment_block_start","car.bmp","100","296","36","37","4","4","Acquisiton","37","4","2","right","36","33","0.6999999999999999556","0.2999999999999999889","CRCF","0","1","1","2","122","71","1","89","1","24","35.5","0.5"
"6.4.2","Reversal_Task","378965","2021-09-28","16:19:32","fixation","Experiment_block_start","+","100","296","36","37","4","4","Acquisiton","37","4","2","right","36","33","0.6999999999999999556","0.2999999999999999889","CRCF","0","1","1","2","122","72","2","90","2","24","36","1"
"6.4.2","Reversal_Task","378965","2021-09-28","16:19:32","choice","Experiment_block_start","car.bmp","100","450","36","37","4","4","Acquisiton","37","4","2","right","36","33","0.6999999999999999556","0.2999999999999999889","CRCF","0","1","1","3","123","72","2","90","2","24","36","1"
"6.4.2","Reversal_Task","378965","2021-09-28","16:19:32","fixation","Experiment_block_start","+","100","450","36","37","4","4","Acquisiton","37","4","2","right","36","33","0.6999999999999999556","0.2999999999999999889","CRCF","0","1","1","3","123","73","3","91","3","24","36.5","1.5"
"6.4.2","Reversal_Task","378965","2021-09-28","16:19:32","choice","Experiment_block_start","car.bmp","100","422","36","37","4","4","Acquisiton","37","4","2","right","36","33","0.6999999999999999556","0.2999999999999999889","CRCF","0","1","1","4","124","73","3","91","3","24","36.5","1.5"
"6.4.2","Reversal_Task","378965","2021-09-28","16:19:32","fixation","Experiment_block_start","+","100","422","36","37","4","4","Acquisiton","37","4","2","right","36","33","0.6999999999999999556","0.2999999999999999889","CRCF","0","1","1","4","124","74","4","92","4","24","37","2"
"6.4.2","Reversal_Task","378965","2021-09-28","16:19:32","choice","Experiment_block_start","car.bmp","100","490","36","37","4","4","Acquisiton","37","4","2","right","36","33","0.6999999999999999556","0.2999999999999999889","CRCF","0","1","1","5","125","74","4","92","4","24","37","2"
"6.4.2","Reversal_Task","378965","2021-09-28","16:19:32","fixation","Experiment_block_start","+","100","490","36","37","4","4","Acquisiton","37","4","2","right","36","33","0.6999999999999999556","0.2999999999999999889","CRCF","0","1","1","5","125","75","5","93","5","24","37.5","2.5"
"6.4.2","Reversal_Task","378965","2021-09-28","16:19:32","choice","Experiment_block_start","car.bmp","100","382","36","37","4","4","Acquisiton","37","4","2","right","36","33","0.6999999999999999556","0.2999999999999999889","CRIF","0","1","-1","6","126","75","5","93","5","24","37.5","2.5"
"6.4.2","Reversal_Task","378965","2021-09-28","16:19:32","fixation","Experiment_block_start","+","100","382","36","37","4","4","Acquisiton","37","4","2","right","36","33","0.6999999999999999556","0.2999999999999999889","CRIF","0","1","-1","6","126","75","5","94","6","24","37.5","2.5"
"6.4.2","Reversal_Task","378965","2021-09-28","16:19:32","choice","Experiment_block_start","car.bmp","100","346","36","37","4","4","Acquisiton","37","4","2","right","36","33","0.6999999999999999556","0.2999999999999999889","CRCF","0","1","1","7","127","75","5","94","6","24","37.5","2.5"
"6.4.2","Reversal_Task","378965","2021-09-28","16:19:32","fixation","Experiment_block_start","+","100","346","36","37","4","4","Acquisiton","37","4","2","right","36","33","0.6999999999999999556","0.2999999999999999889","CRCF","0","1","1","7","127","76","6","95","7","24","38","3"
"6.4.2","Reversal_Task","378965","2021-09-28","16:19:32","choice","Experiment_block_start","car.bmp","100","299","36","37","4","4","Acquisiton","37","4","1","left","33","36","0.6999999999999999556","0.2999999999999999889","IRCF","0","-1","-1","8","128","76","6","95","7","24","38","3"
"6.4.2","Reversal_Task","378965","2021-09-28","16:19:32","fixation","Experiment_block_start","+","100","299","36","37","4","4","Acquisiton","37","4","1","left","33","36","0.6999999999999999556","0.2999999999999999889","IRCF","0","-1","-1","8","128","77","7","95","0","24","38.5","3.5"
"6.4.2","Reversal_Task","378965","2021-09-28","16:19:32","choice","Experiment_block_start","car.bmp","100","422","33","37","4","4","Acquisiton","37","4","2","right","36","33","0.6999999999999999556","0.2999999999999999889","IRIF","0","-1","1","9","129","77","7","95","0","24","38.5","3.5"
"6.4.2","Reversal_Task","378965","2021-09-28","16:19:32","fixation","Experiment_block_start","+","100","422","33","37","4","4","Acquisiton","37","4","2","right","36","33","0.6999999999999999556","0.2999999999999999889","IRIF","0","-1","1","9","129","77","7","95","0","24","38.5","3.5"
"6.4.2","Reversal_Task","378965","2021-09-28","16:19:32","choice","Experiment_block_start","car.bmp","100","460","36","37","4","4","Acquisiton","37","4","2","right","36","33","0.6999999999999999556","0.2999999999999999889","CRIF","0","1","-1","10","130","77","7","95","0","24","38.5","3.5"
"6.4.2","Reversal_Task","378965","2021-09-28","16:19:32","fixation","Experiment_block_start","+","100","460","36","37","4","4","Acquisiton","37","4","2","right","36","33","0.6999999999999999556","0.2999999999999999889","CRIF","0","1","-1","10","130","77","7","96","1","24","38.5","3.5"
"6.4.2","Reversal_Task","378965","2021-09-28","16:19:32","choice","Experiment_block_start","car.bmp","100","340","36","37","4","4","Acquisiton","37","4","2","right","36","33","0.6999999999999999556","0.2999999999999999889","CRIF","0","1","-1","11","131","77","7","96","1","24","38.5","3.5"
"6.4.2","Reversal_Task","378965","2021-09-28","16:19:32","fixation","Experiment_block_start","+","100","340","36","37","4","4","Acquisiton","37","4","2","right","36","33","0.6999999999999999556","0.2999999999999999889","CRIF","0","1","-1","11","131","77","7","97","2","24","38.5","3.5"
"6.4.2","Reversal_Task","378965","2021-09-28","16:19:32","choice","Experiment_block_start","car.bmp","100","293","36","37","4","4","Acquisiton","37","4","2","right","36","33","0.6999999999999999556","0.2999999999999999889","CRCF","0","1","1","12","132","77","7","97","2","24","38.5","3.5"
"6.4.2","Reversal_Task","378965","2021-09-28","16:19:32","fixation","Experiment_block_start","+","100","293","36","37","4","4","Acquisiton","37","4","2","right","36","33","0.6999999999999999556","0.2999999999999999889","CRCF","0","1","1","12","132","78","8","98","3","24","39","4"
"6.4.2","Reversal_Task","378965","2021-09-28","16:19:32","choice","Experiment_block_start","car.bmp","100","296","36","37","4","4","Acquisiton","37","4","2","right","36","33","0.6999999999999999556","0.2999999999999999889","CRCF","0","1","1","13","133","78","8","98","3","24","39","4"
"6.4.2","Reversal_Task","378965","2021-09-28","16:19:32","fixation","Experiment_block_start","+","100","296","36","37","4","4","Acquisiton","37","4","2","right","36","33","0.6999999999999999556","0.2999999999999999889","CRCF","0","1","1","13","133","79","9","99","4","24","39.5","4.5"
"6.4.2","Reversal_Task","378965","2021-09-28","16:19:32","choice","Experiment_block_start","car.bmp","100","449","33","37","4","4","Acquisiton","37","4","1","left","33","36","0.6999999999999999556","0.2999999999999999889","CRCF","0","1","1","14","134","79","9","99","4","24","39.5","4.5"
"6.4.2","Reversal_Task","378965","2021-09-28","16:19:32","fixation","Experiment_block_start","+","100","449","33","37","4","4","Acquisiton","37","4","1","left","33","36","0.6999999999999999556","0.2999999999999999889","CRCF","0","1","1","14","134","80","10","100","5","24","40","5"
"6.4.2","Reversal_Task","378965","2021-09-28","16:19:32","choice","Experiment_block_start","car.bmp","100","377","36","37","4","4","Acquisiton","37","4","2","right","36","33","0.6999999999999999556","0.2999999999999999889","CRCF","0","1","1","15","135","80","10","100","5","24","40","5"
"6.4.2","Reversal_Task","378965","2021-09-28","16:19:32","fixation","Experiment_block_start","+","100","377","36","37","4","4","Acquisiton","37","4","2","right","36","33","0.6999999999999999556","0.2999999999999999889","CRCF","0","1","1","15","135","81","11","101","6","24","40.5","5.5"
"6.4.2","Reversal_Task","378965","2021-09-28","16:19:32","choice","Experiment_block_start","car.bmp","100","416","33","37","4","4","Acquisiton","37","4","1","left","33","36","0.6999999999999999556","0.2999999999999999889","CRCF","0","1","1","16","136","81","11","101","6","24","40.5","5.5"
"6.4.2","Reversal_Task","378965","2021-09-28","16:19:32","fixation","Experiment_block_start","+","100","416","33","37","4","4","Acquisiton","37","4","1","left","33","36","0.6999999999999999556","0.2999999999999999889","CRCF","0","1","1","16","136","82","12","102","7","24","41","6"
"6.4.2","Reversal_Task","378965","2021-09-28","16:19:32","choice","Experiment_block_start","car.bmp","100","376","33","37","4","4","Acquisiton","37","4","1","left","33","36","0.6999999999999999556","0.2999999999999999889","CRIF","0","1","-1","17","137","82","12","102","7","24","41","6"
"6.4.2","Reversal_Task","378965","2021-09-28","16:19:32","fixation","Experiment_block_start","+","100","376","33","37","4","4","Acquisiton","37","4","1","left","33","36","0.6999999999999999556","0.2999999999999999889","CRIF","0","1","-1","17","137","82","12","103","8","24","41","6"
"6.4.2","Reversal_Task","378965","2021-09-28","16:19:32","choice","Experiment_block_start","car.bmp","100","266","36","37","4","4","Acquisiton","37","4","2","right","36","33","0.6999999999999999556","0.2999999999999999889","CRCF","0","1","1","18","138","82","12","103","8","24","41","6"
"6.4.2","Reversal_Task","378965","2021-09-28","16:19:32","fixation","Experiment_block_start","+","100","266","36","37","4","4","Acquisiton","37","4","2","right","36","33","0.6999999999999999556","0.2999999999999999889","CRCF","0","1","1","18","138","83","13","104","9","24","41.5","6.5"
"6.4.2","Reversal_Task","378965","2021-09-28","16:19:32","choice","Experiment_block_start","car.bmp","100","378","36","37","4","4","Acquisiton","37","4","2","right","36","33","0.6999999999999999556","0.2999999999999999889","CRCF","0","1","1","19","139","83","13","104","9","24","41.5","6.5"
"6.4.2","Reversal_Task","378965","2021-09-28","16:19:32","fixation","Experiment_block_start","+","100","378","36","37","4","4","Acquisiton","37","4","2","right","36","33","0.6999999999999999556","0.2999999999999999889","CRCF","0","1","1","19","139","84","14","105","10","24","42","7"
"6.4.2","Reversal_Task","378965","2021-09-28","16:19:32","choice","Experiment_block_start","car.bmp","100","373","36","37","4","4","Acquisiton","37","4","2","right","36","33","0.6999999999999999556","0.2999999999999999889","CRIF","0","1","-1","20","140","84","14","105","10","24","42","7"
"6.4.2","Reversal_Task","378965","2021-09-28","16:19:32","fixation","Experiment_block_start","+","100","373","36","37","4","4","Acquisiton","37","4","2","right","36","33","0.6999999999999999556","0.2999999999999999889","CRIF","0","1","-1","20","140","84","14","106","11","24","42","7"
"6.4.2","Reversal_Task","378965","2021-09-28","16:19:32","choice","Experiment_block_start","car.bmp","100","418","33","37","4","4","Acquisiton","37","4","1","left","33","36","0.6999999999999999556","0.2999999999999999889","CRCF","0","1","1","21","141","84","14","106","11","24","42","7"
"6.4.2","Reversal_Task","378965","2021-09-28","16:19:32","fixation","Experiment_block_start","+","100","418","33","37","4","4","Acquisiton","37","4","1","left","33","36","0.6999999999999999556","0.2999999999999999889","CRCF","0","1","1","21","141","85","15","107","12","24","42.5","7.5"
"6.4.2","Reversal_Task","378965","2021-09-28","16:19:32","choice","Experiment_block_start","car.bmp","100","283","36","37","4","4","Acquisiton","37","4","2","right","36","33","0.6999999999999999556","0.2999999999999999889","CRCF","0","1","1","22","142","85","15","107","12","24","42.5","7.5"
"6.4.2","Reversal_Task","378965","2021-09-28","16:19:32","fixation","Experiment_block_start","+","100","283","36","37","4","4","Acquisiton","37","4","2","right","36","33","0.6999999999999999556","0.2999999999999999889","CRCF","0","1","1","22","142","86","16","108","13","24","43","8"
"6.4.2","Reversal_Task","378965","2021-09-28","16:19:32","choice","Experiment_block_start","car.bmp","100","378","33","37","4","4","Acquisiton","37","4","1","left","33","36","0.6999999999999999556","0.2999999999999999889","CRCF","0","1","1","23","143","86","16","108","13","24","43","8"
"6.4.2","Reversal_Task","378965","2021-09-28","16:19:32","fixation","Experiment_block_start","+","100","378","33","37","4","4","Acquisiton","37","4","1","left","33","36","0.6999999999999999556","0.2999999999999999889","CRCF","0","1","1","23","143","87","17","109","14","24","43.5","8.5"
"6.4.2","Reversal_Task","378965","2021-09-28","16:19:32","choice","Experiment_block_start","car.bmp","100","313","36","37","4","4","Acquisiton","37","4","2","right","36","33","0.6999999999999999556","0.2999999999999999889","CRIF","0","1","-1","24","144","87","17","109","14","24","43.5","8.5"
"6.4.2","Reversal_Task","378965","2021-09-28","16:19:32","fixation","Experiment_block_start","+","100","313","36","37","4","4","Acquisiton","37","4","2","right","36","33","0.6999999999999999556","0.2999999999999999889","CRIF","0","1","-1","24","144","87","17","110","15","24","43.5","8.5"
"6.4.2","Reversal_Task","378965","2021-09-28","16:19:32","choice","Experiment_block_start","carriage.bmp","100","434","33","4","37","4","Reversal","4","37","2","right","36","33","0.6999999999999999556","0.2999999999999999889","IRIF","0","-1","1","25","145","87","17","110","15","24","43.5","8.5"
"6.4.2","Reversal_Task","378965","2021-09-28","16:19:32","fixation","Experiment_block_start","+","100","434","33","4","37","4","Reversal","4","37","2","right","36","33","0.6999999999999999556","0.2999999999999999889","IRIF","0","-1","1","25","145","87","17","110","0","24","43.5","8.5"
"6.4.2","Reversal_Task","378965","2021-09-28","16:19:32","choice","Experiment_block_start","carriage.bmp","100","318","36","4","37","4","Reversal","4","37","1","left","33","36","0.6999999999999999556","0.2999999999999999889","IRIF","0","-1","1","26","146","87","17","110","0","24","43.5","8.5"
"6.4.2","Reversal_Task","378965","2021-09-28","16:19:32","fixation","Experiment_block_start","+","100","318","36","4","37","4","Reversal","4","37","1","left","33","36","0.6999999999999999556","0.2999999999999999889","IRIF","0","-1","1","26","146","87","17","110","0","24","43.5","8.5"
"6.4.2","Reversal_Task","378965","2021-09-28","16:19:32","choice","Experiment_block_start","carriage.bmp","100","320","36","4","37","4","Reversal","4","37","2","right","36","33","0.6999999999999999556","0.2999999999999999889","CRIF","0","1","-1","27","147","87","17","110","0","24","43.5","8.5"
"6.4.2","Reversal_Task","378965","2021-09-28","16:19:32","fixation","Experiment_block_start","+","100","320","36","4","37","4","Reversal","4","37","2","right","36","33","0.6999999999999999556","0.2999999999999999889","CRIF","0","1","-1","27","147","87","17","111","1","24","43.5","8.5"
"6.4.2","Reversal_Task","378965","2021-09-28","16:19:32","choice","Experiment_block_start","carriage.bmp","100","263","33","4","37","4","Reversal","4","37","2","right","36","33","0.6999999999999999556","0.2999999999999999889","IRIF","0","-1","1","28","148","87","17","111","1","24","43.5","8.5"
"6.4.2","Reversal_Task","378965","2021-09-28","16:19:32","fixation","Experiment_block_start","+","100","263","33","4","37","4","Reversal","4","37","2","right","36","33","0.6999999999999999556","0.2999999999999999889","IRIF","0","-1","1","28","148","87","17","111","0","24","43.5","8.5"
"6.4.2","Reversal_Task","378965","2021-09-28","16:19:32","choice","Experiment_block_start","carriage.bmp","100","448","36","4","37","4","Reversal","4","37","2","right","36","33","0.6999999999999999556","0.2999999999999999889","CRIF","0","1","-1","29","149","87","17","111","0","24","43.5","8.5"
"6.4.2","Reversal_Task","378965","2021-09-28","16:19:32","fixation","Experiment_block_start","+","100","448","36","4","37","4","Reversal","4","37","2","right","36","33","0.6999999999999999556","0.2999999999999999889","CRIF","0","1","-1","29","149","87","17","112","1","24","43.5","8.5"
"6.4.2","Reversal_Task","378965","2021-09-28","16:19:32","choice","Experiment_block_start","carriage.bmp","100","389","36","4","37","4","Reversal","4","37","2","right","36","33","0.6999999999999999556","0.2999999999999999889","CRCF","0","1","1","30","150","87","17","112","1","24","43.5","8.5"
"6.4.2","Reversal_Task","378965","2021-09-28","16:19:32","fixation","Experiment_block_start","+","100","389","36","4","37","4","Reversal","4","37","2","right","36","33","0.6999999999999999556","0.2999999999999999889","CRCF","0","1","1","30","150","88","18","113","2","24","44","9"
"6.4.2","Reversal_Task","378965","2021-09-28","16:19:32","choice","Experiment_block_start","carriage.bmp","100","356","36","4","37","4","Reversal","4","37","2","right","36","33","0.6999999999999999556","0.2999999999999999889","CRCF","0","1","1","31","151","88","18","113","2","24","44","9"
"6.4.2","Reversal_Task","378965","2021-09-28","16:19:32","fixation","Experiment_block_start","+","100","356","36","4","37","4","Reversal","4","37","2","right","36","33","0.6999999999999999556","0.2999999999999999889","CRCF","0","1","1","31","151","89","19","114","3","24","44.5","9.5"
"6.4.2","Reversal_Task","378965","2021-09-28","16:19:32","choice","Experiment_block_start","carriage.bmp","100","327","36","4","37","4","Reversal","4","37","2","right","36","33","0.6999999999999999556","0.2999999999999999889","CRCF","0","1","1","32","152","89","19","114","3","24","44.5","9.5"
"6.4.2","Reversal_Task","378965","2021-09-28","16:19:32","fixation","Experiment_block_start","+","100","327","36","4","37","4","Reversal","4","37","2","right","36","33","0.6999999999999999556","0.2999999999999999889","CRCF","0","1","1","32","152","90","20","115","4","24","45","10"
"6.4.2","Reversal_Task","378965","2021-09-28","16:19:32","choice","Experiment_block_start","carriage.bmp","100","533","33","4","37","4","Reversal","4","37","1","left","33","36","0.6999999999999999556","0.2999999999999999889","CRIF","0","1","-1","33","153","90","20","115","4","24","45","10"
"6.4.2","Reversal_Task","378965","2021-09-28","16:19:32","fixation","Experiment_block_start","+","100","533","33","4","37","4","Reversal","4","37","1","left","33","36","0.6999999999999999556","0.2999999999999999889","CRIF","0","1","-1","33","153","90","20","116","5","24","45","10"
"6.4.2","Reversal_Task","378965","2021-09-28","16:19:32","choice","Experiment_block_start","carriage.bmp","100","406","36","4","37","4","Reversal","4","37","2","right","36","33","0.6999999999999999556","0.2999999999999999889","CRIF","0","1","-1","34","154","90","20","116","5","24","45","10"
"6.4.2","Reversal_Task","378965","2021-09-28","16:19:32","fixation","Experiment_block_start","+","100","406","36","4","37","4","Reversal","4","37","2","right","36","33","0.6999999999999999556","0.2999999999999999889","CRIF","0","1","-1","34","154","90","20","117","6","24","45","10"
"6.4.2","Reversal_Task","378965","2021-09-28","16:19:32","choice","Experiment_block_start","carriage.bmp","100","400","33","4","37","4","Reversal","4","37","1","left","33","36","0.6999999999999999556","0.2999999999999999889","CRCF","0","1","1","35","155","90","20","117","6","24","45","10"
"6.4.2","Reversal_Task","378965","2021-09-28","16:19:32","fixation","Experiment_block_start","+","100","400","33","4","37","4","Reversal","4","37","1","left","33","36","0.6999999999999999556","0.2999999999999999889","CRCF","0","1","1","35","155","91","21","118","7","24","45.5","10.5"
"6.4.2","Reversal_Task","378965","2021-09-28","16:19:32","choice","Experiment_block_start","carriage.bmp","100","362","36","4","37","4","Reversal","4","37","1","left","33","36","0.6999999999999999556","0.2999999999999999889","IRIF","0","-1","1","36","156","91","21","118","7","24","45.5","10.5"
"6.4.2","Reversal_Task","378965","2021-09-28","16:19:32","fixation","Experiment_block_start","+","100","362","36","4","37","4","Reversal","4","37","1","left","33","36","0.6999999999999999556","0.2999999999999999889","IRIF","0","-1","1","36","156","91","21","118","0","24","45.5","10.5"
"6.4.2","Reversal_Task","378965","2021-09-28","16:19:32","choice","Experiment_block_start","carriage.bmp","100","314","36","4","37","4","Reversal","4","37","2","right","36","33","0.6999999999999999556","0.2999999999999999889","CRCF","0","1","1","37","157","91","21","118","0","24","45.5","10.5"
"6.4.2","Reversal_Task","378965","2021-09-28","16:19:32","fixation","Experiment_block_start","+","100","314","36","4","37","4","Reversal","4","37","2","right","36","33","0.6999999999999999556","0.2999999999999999889","CRCF","0","1","1","37","157","92","22","119","1","24","46","11"
"6.4.2","Reversal_Task","378965","2021-09-28","16:19:32","choice","Experiment_block_start","carriage.bmp","100","480","36","4","37","4","Reversal","4","37","2","right","36","33","0.6999999999999999556","0.2999999999999999889","CRCF","0","1","1","38","158","92","22","119","1","24","46","11"
"6.4.2","Reversal_Task","378965","2021-09-28","16:19:32","fixation","Experiment_block_start","+","100","480","36","4","37","4","Reversal","4","37","2","right","36","33","0.6999999999999999556","0.2999999999999999889","CRCF","0","1","1","38","158","93","23","120","2","24","46.5","11.5"
"6.4.2","Reversal_Task","378965","2021-09-28","16:19:32","choice","Experiment_block_start","carriage.bmp","100","432","36","4","37","4","Reversal","4","37","2","right","36","33","0.6999999999999999556","0.2999999999999999889","CRCF","0","1","1","39","159","93","23","120","2","24","46.5","11.5"
"6.4.2","Reversal_Task","378965","2021-09-28","16:19:32","fixation","Experiment_block_start","+","100","432","36","4","37","4","Reversal","4","37","2","right","36","33","0.6999999999999999556","0.2999999999999999889","CRCF","0","1","1","39","159","94","24","121","3","24","47","12"
"6.4.2","Reversal_Task","378965","2021-09-28","16:19:32","choice","Experiment_block_start","carriage.bmp","100","707","33","4","37","4","Reversal","4","37","1","left","33","36","0.6999999999999999556","0.2999999999999999889","CRIF","0","1","-1","40","160","94","24","121","3","24","47","12"
"6.4.2","Reversal_Task","378965","2021-09-28","16:19:32","fixation","Experiment_block_start","+","100","707","33","4","37","4","Reversal","4","37","1","left","33","36","0.6999999999999999556","0.2999999999999999889","CRIF","0","1","-1","40","160","94","24","122","4","24","47","12"
"6.4.2","Reversal_Task","378965","2021-09-28","16:19:32","reset_trial","Experiment_block_start","Press SPACE to continue","100","707","33","4","37","5","Reversal","4","37","1","left","33","36","0.6999999999999999556","0.2999999999999999889","CRIF","0","1","-1","0","160","94","24","122","0","21","47","12"
"6.4.2","Reversal_Task","378965","2021-09-28","16:19:32","choice","Experiment_block_start","fan.bmp","100","638","36","6","40","5","Acquisiton","6","40","2","right","36","33","0.6999999999999999556","0.2999999999999999889","CRCF","0","1","1","1","161","94","0","122","0","21","47","0"
"6.4.2","Reversal_Task","378965","2021-09-28","16:19:32","fixation","Experiment_block_start","+","100","638","36","6","40","5","Acquisiton","6","40","2","right","36","33","0.6999999999999999556","0.2999999999999999889","CRCF","0","1","1","1","161","95","1","123","1","21","47.5","0.5"
"6.4.2","Reversal_Task","378965","2021-09-28","16:19:32","choice","Experiment_block_start","fan.bmp","100","353","33","6","40","5","Acquisiton","6","40","2","right","36","33","0.6999999999999999556","0.2999999999999999889","IRIF","0","-1","1","2","162","95","1","123","1","21","47.5","0.5"
"6.4.2","Reversal_Task","378965","2021-09-28","16:19:32","fixation","Experiment_block_start","+","100","353","33","6","40","5","Acquisiton","6","40","2","right","36","33","0.6999999999999999556","0.2999999999999999889","IRIF","0","-1","1","2","162","95","1","123","0","21","47.5","0.5"
"6.4.2","Reversal_Task","378965","2021-09-28","16:19:32","choice","Experiment_block_start","fan.bmp","100","290","36","6","40","5","Acquisiton","6","40","2","right","36","33","0.6999999999999999556","0.2999999999999999889","CRCF","0","1","1","3","163","95","1","123","0","21","47.5","0.5"
"6.4.2","Reversal_Task","378965","2021-09-28","16:19:32","fixation","Experiment_block_start","+","100","290","36","6","40","5","Acquisiton","6","40","2","right","36","33","0.6999999999999999556","0.2999999999999999889","CRCF","0","1","1","3","163","96","2","124","1","21","48","1"
"6.4.2","Reversal_Task","378965","2021-09-28","16:19:32","choice","Experiment_block_start","fan.bmp","100","353","36","6","40","5","Acquisiton","6","40","2","right","36","33","0.6999999999999999556","0.2999999999999999889","CRCF","0","1","1","4","164","96","2","124","1","21","48","1"
"6.4.2","Reversal_Task","378965","2021-09-28","16:19:32","fixation","Experiment_block_start","+","100","353","36","6","40","5","Acquisiton","6","40","2","right","36","33","0.6999999999999999556","0.2999999999999999889","CRCF","0","1","1","4","164","97","3","125","2","21","48.5","1.5"
"6.4.2","Reversal_Task","378965","2021-09-28","16:19:32","choice","Experiment_block_start","fan.bmp","100","456","33","6","40","5","Acquisiton","6","40","1","left","33","36","0.6999999999999999556","0.2999999999999999889","CRCF","0","1","1","5","165","97","3","125","2","21","48.5","1.5"
"6.4.2","Reversal_Task","378965","2021-09-28","16:19:32","fixation","Experiment_block_start","+","100","456","33","6","40","5","Acquisiton","6","40","1","left","33","36","0.6999999999999999556","0.2999999999999999889","CRCF","0","1","1","5","165","98","4","126","3","21","49","2"
"6.4.2","Reversal_Task","378965","2021-09-28","16:19:32","choice","Experiment_block_start","fan.bmp","100","400","33","6","40","5","Acquisiton","6","40","1","left","33","36","0.6999999999999999556","0.2999999999999999889","CRCF","0","1","1","6","166","98","4","126","3","21","49","2"
"6.4.2","Reversal_Task","378965","2021-09-28","16:19:32","fixation","Experiment_block_start","+","100","400","33","6","40","5","Acquisiton","6","40","1","left","33","36","0.6999999999999999556","0.2999999999999999889","CRCF","0","1","1","6","166","99","5","127","4","21","49.5","2.5"
"6.4.2","Reversal_Task","378965","2021-09-28","16:19:32","choice","Experiment_block_start","fan.bmp","100","407","36","6","40","5","Acquisiton","6","40","2","right","36","33","0.6999999999999999556","0.2999999999999999889","CRIF","0","1","-1","7","167","99","5","127","4","21","49.5","2.5"
"6.4.2","Reversal_Task","378965","2021-09-28","16:19:32","fixation","Experiment_block_start","+","100","407","36","6","40","5","Acquisiton","6","40","2","right","36","33","0.6999999999999999556","0.2999999999999999889","CRIF","0","1","-1","7","167","99","5","128","5","21","49.5","2.5"
"6.4.2","Reversal_Task","378965","2021-09-28","16:19:32","choice","Experiment_block_start","fan.bmp","100","428","36","6","40","5","Acquisiton","6","40","2","right","36","33","0.6999999999999999556","0.2999999999999999889","CRIF","0","1","-1","8","168","99","5","128","5","21","49.5","2.5"
"6.4.2","Reversal_Task","378965","2021-09-28","16:19:32","fixation","Experiment_block_start","+","100","428","36","6","40","5","Acquisiton","6","40","2","right","36","33","0.6999999999999999556","0.2999999999999999889","CRIF","0","1","-1","8","168","99","5","129","6","21","49.5","2.5"
"6.4.2","Reversal_Task","378965","2021-09-28","16:19:32","choice","Experiment_block_start","fan.bmp","100","403","36","6","40","5","Acquisiton","6","40","1","left","33","36","0.6999999999999999556","0.2999999999999999889","IRIF","0","-1","1","9","169","99","5","129","6","21","49.5","2.5"
"6.4.2","Reversal_Task","378965","2021-09-28","16:19:32","fixation","Experiment_block_start","+","100","403","36","6","40","5","Acquisiton","6","40","1","left","33","36","0.6999999999999999556","0.2999999999999999889","IRIF","0","-1","1","9","169","99","5","129","0","21","49.5","2.5"
"6.4.2","Reversal_Task","378965","2021-09-28","16:19:32","choice","Experiment_block_start","fan.bmp","100","401","33","6","40","5","Acquisiton","6","40","1","left","33","36","0.6999999999999999556","0.2999999999999999889","CRCF","0","1","1","10","170","99","5","129","0","21","49.5","2.5"
"6.4.2","Reversal_Task","378965","2021-09-28","16:19:32","fixation","Experiment_block_start","+","100","401","33","6","40","5","Acquisiton","6","40","1","left","33","36","0.6999999999999999556","0.2999999999999999889","CRCF","0","1","1","10","170","100","6","130","1","21","50","3"
"6.4.2","Reversal_Task","378965","2021-09-28","16:19:32","choice","Experiment_block_start","fan.bmp","100","282","36","6","40","5","Acquisiton","6","40","1","left","33","36","0.6999999999999999556","0.2999999999999999889","IRCF","0","-1","-1","11","171","100","6","130","1","21","50","3"
"6.4.2","Reversal_Task","378965","2021-09-28","16:19:32","fixation","Experiment_block_start","+","100","282","36","6","40","5","Acquisiton","6","40","1","left","33","36","0.6999999999999999556","0.2999999999999999889","IRCF","0","-1","-1","11","171","101","7","130","0","21","50.5","3.5"
