build	experimentName	subject	date	time	trialcode	blockcode	stimulusitem1	trial.presentation_left.percentcorrect	trial.presentation_right.percentcorrect	trial.presentation_left.response	trial.presentation_left.latency	trial.presentation_right.response	trial.presentation_right.latency	picture.Left.currentvalue	picture.Right.currentvalue	block_number	task_phase	LeftStimSelected	RightStimSelected	percentTrialsCorrectFeedback_left	percentTrialsCorrectFeedback_right	responseAndFeedbackCategory	isThisTrialPractice	isResponseCorrect	isFeedbackAccurate	trial_number	total_trialnum	numbercorrectfeedback	totalcorrect	numberoftimesleft	numberoftimesright	rightleftcorrect	consecutivecorrect	reversalnumber	totalearnings	centsearned
6.4.2	Reversal_Task	1	2021-09-22	09:33:14	presentation_right	Experiment_block_rightstart	umbrella.bmp	100	0	33	292	33	501	39	25	1	Acquisiton	39	25	0.2000000000000000111	0.8000000000000000444	IRIF	0	-1	1	1	7	0		1	0	right	6	32	1.5	0
6.4.2	Reversal_Task	1	2021-09-22	09:33:14	fixation	Experiment_block_rightstart	+	100	0	33	292	33	501	39	25	1	Acquisiton	39	25	0.2000000000000000111	0.8000000000000000444	IRIF	0	-1	1	1	7	0		1	0	right	0	32	1.5	0
6.4.2	Reversal_Task	1	2021-09-22	09:33:14	presentation_right	Experiment_block_rightstart	umbrella.bmp	100	50	33	292	36	229	39	25	1	Acquisiton	39	25	0.2000000000000000111	0.8000000000000000444	CRCF	0	1	1	2	8	0		1	1	right	0	32	1.5	0
6.4.2	Reversal_Task	1	2021-09-22	09:33:14	fixation	Experiment_block_rightstart	+	100	50	33	292	36	229	39	25	1	Acquisiton	39	25	0.2000000000000000111	0.8000000000000000444	CRCF	0	1	1	2	8	1		1	1	right	1	32	1.5	0.5
6.4.2	Reversal_Task	1	2021-09-22	09:33:14	presentation_right	Experiment_block_rightstart	umbrella.bmp	100	66	33	292	36	197	39	25	1	Acquisiton	39	25	0.2000000000000000111	0.8000000000000000444	CRCF	0	1	1	3	9	1		1	2	right	1	32	1.5	0.5
6.4.2	Reversal_Task	1	2021-09-22	09:33:14	fixation	Experiment_block_rightstart	+	100	66	33	292	36	197	39	25	1	Acquisiton	39	25	0.2000000000000000111	0.8000000000000000444	CRCF	0	1	1	3	9	2		1	2	right	2	32	1.5	1
6.4.2	Reversal_Task	1	2021-09-22	09:33:14	presentation_right	Experiment_block_rightstart	umbrella.bmp	100	75	33	292	36	144	39	25	1	Acquisiton	39	25	0.2000000000000000111	0.8000000000000000444	CRCF	0	1	1	4	10	2		1	3	right	2	32	1.5	1
6.4.2	Reversal_Task	1	2021-09-22	09:33:14	fixation	Experiment_block_rightstart	+	100	75	33	292	36	144	39	25	1	Acquisiton	39	25	0.2000000000000000111	0.8000000000000000444	CRCF	0	1	1	4	10	3		1	3	right	3	32	1.5	1.5
6.4.2	Reversal_Task	1	2021-09-22	09:33:14	presentation_right	Experiment_block_rightstart	umbrella.bmp	100	80	33	292	36	30	39	25	1	Acquisiton	39	25	0.2000000000000000111	0.8000000000000000444	CRCF	0	1	1	5	11	3		1	4	right	3	32	1.5	1.5
6.4.2	Reversal_Task	1	2021-09-22	09:33:14	fixation	Experiment_block_rightstart	+	100	80	33	292	36	30	39	25	1	Acquisiton	39	25	0.2000000000000000111	0.8000000000000000444	CRCF	0	1	1	5	11	4		1	4	right	4	32	1.5	2
6.4.2	Reversal_Task	1	2021-09-22	09:33:14	presentation_right	Experiment_block_rightstart	umbrella.bmp	100	83	33	292	36	49	39	25	1	Acquisiton	39	25	0.2000000000000000111	0.8000000000000000444	CRIF	0	1	-1	6	12	4		1	5	right	4	32	1.5	2
6.4.2	Reversal_Task	1	2021-09-22	09:33:14	fixation	Experiment_block_rightstart	+	100	83	33	292	36	49	39	25	1	Acquisiton	39	25	0.2000000000000000111	0.8000000000000000444	CRIF	0	1	-1	6	12	4		1	5	right	5	32	1.5	2
6.4.2	Reversal_Task	1	2021-09-22	09:33:14	presentation_right	Experiment_block_rightstart	umbrella.bmp	100	85	33	292	36	64	39	25	1	Acquisiton	39	25	0.2000000000000000111	0.8000000000000000444	CRCF	0	1	1	7	13	4		1	6	right	5	32	1.5	2
6.4.2	Reversal_Task	1	2021-09-22	09:33:14	fixation	Experiment_block_rightstart	+	100	85	33	292	36	64	39	25	1	Acquisiton	39	25	0.2000000000000000111	0.8000000000000000444	CRCF	0	1	1	7	13	5		1	6	right	6	32	1.5	2.5
6.4.2	Reversal_Task	1	2021-09-22	09:33:14	presentation_right	Experiment_block_rightstart	umbrella.bmp	100	87	33	292	36	73	39	25	1	Acquisiton	39	25	0.2000000000000000111	0.8000000000000000444	CRCF	0	1	1	8	14	5		1	7	right	6	32	1.5	2.5
6.4.2	Reversal_Task	1	2021-09-22	09:33:14	fixation	Experiment_block_rightstart	+	100	87	33	292	36	73	39	25	1	Acquisiton	39	25	0.2000000000000000111	0.8000000000000000444	CRCF	0	1	1	8	14	6		1	7	right	7	32	1.5	3
6.4.2	Reversal_Task	1	2021-09-22	09:33:14	presentation_right	Experiment_block_rightstart	umbrella.bmp	100	88	33	292	36	145	39	25	1	Acquisiton	39	25	0.2000000000000000111	0.8000000000000000444	CRCF	0	1	1	9	15	6		1	8	right	7	32	1.5	3
6.4.2	Reversal_Task	1	2021-09-22	09:33:14	fixation	Experiment_block_rightstart	+	100	88	33	292	36	145	39	25	1	Acquisiton	39	25	0.2000000000000000111	0.8000000000000000444	CRCF	0	1	1	9	15	7		1	8	right	8	32	1.5	3.5
6.4.2	Reversal_Task	1	2021-09-22	09:33:14	presentation_right	Experiment_block_rightstart	umbrella.bmp	100	90	33	292	36	150	39	25	1	Acquisiton	39	25	0.2000000000000000111	0.8000000000000000444	CRCF	0	1	1	10	16	7		1	9	right	8	32	1.5	3.5
6.4.2	Reversal_Task	1	2021-09-22	09:33:14	fixation	Experiment_block_rightstart	+	100	90	33	292	36	150	39	25	1	Acquisiton	39	25	0.2000000000000000111	0.8000000000000000444	CRCF	0	1	1	10	16	8		1	9	right	9	32	1.5	4
6.4.2	Reversal_Task	1	2021-09-22	09:33:14	presentation_right	Experiment_block_rightstart	umbrella.bmp	100	90	33	292	36	179	39	25	1	Acquisiton	39	25	0.2000000000000000111	0.8000000000000000444	CRIF	0	1	-1	11	17	8		1	10	right	9	32	1.5	4
6.4.2	Reversal_Task	1	2021-09-22	09:33:14	fixation	Experiment_block_rightstart	+	100	90	33	292	36	179	39	25	1	Acquisiton	39	25	0.2000000000000000111	0.8000000000000000444	CRIF	0	1	-1	11	17	8		1	10	right	10	32	1.5	4
6.4.2	Reversal_Task	1	2021-09-22	09:33:14	presentation_right	Experiment_block_rightstart	umbrella.bmp	100	91	33	292	36	199	39	25	1	Acquisiton	39	25	0.2000000000000000111	0.8000000000000000444	CRIF	0	1	-1	12	18	8		1	11	right	10	32	1.5	4
6.4.2	Reversal_Task	1	2021-09-22	09:33:14	fixation	Experiment_block_rightstart	+	100	91	33	292	36	199	39	25	1	Acquisiton	39	25	0.2000000000000000111	0.8000000000000000444	CRIF	0	1	-1	12	18	8		1	11	right	11	32	1.5	4
6.4.2	Reversal_Task	1	2021-09-22	09:33:14	presentation_right	Experiment_block_rightstart	umbrella.bmp	100	92	33	292	36	193	39	25	1	Acquisiton	39	25	0.2000000000000000111	0.8000000000000000444	CRCF	0	1	1	13	19	8		1	12	right	11	32	1.5	4
6.4.2	Reversal_Task	1	2021-09-22	09:33:14	fixation	Experiment_block_rightstart	+	100	92	33	292	36	193	39	25	1	Acquisiton	39	25	0.2000000000000000111	0.8000000000000000444	CRCF	0	1	1	13	19	9		1	12	right	12	32	1.5	4.5
6.4.2	Reversal_Task	1	2021-09-22	09:33:14	presentation_right	Experiment_block_rightstart	umbrella.bmp	100	92	33	292	36	172	39	25	1	Acquisiton	39	25	0.2000000000000000111	0.8000000000000000444	CRCF	0	1	1	14	20	9		1	13	right	12	32	1.5	4.5
6.4.2	Reversal_Task	1	2021-09-22	09:33:14	fixation	Experiment_block_rightstart	+	100	92	33	292	36	172	39	25	1	Acquisiton	39	25	0.2000000000000000111	0.8000000000000000444	CRCF	0	1	1	14	20	10		1	13	right	13	32	1.5	5
6.4.2	Reversal_Task	1	2021-09-22	09:33:14	presentation_right	Experiment_block_rightstart	umbrella.bmp	100	86	33	292	33	223	39	25	1	Acquisiton	39	25	0.2000000000000000111	0.8000000000000000444	IRIF	0	-1	1	15	21	10		2	13	right	13	32	1.5	5
6.4.2	Reversal_Task	1	2021-09-22	09:33:14	fixation	Experiment_block_rightstart	+	100	86	33	292	33	223	39	25	1	Acquisiton	39	25	0.2000000000000000111	0.8000000000000000444	IRIF	0	-1	1	15	21	10		2	13	right	0	32	1.5	5
6.4.2	Reversal_Task	1	2021-09-22	09:33:14	presentation_right	Experiment_block_rightstart	umbrella.bmp	100	81	33	292	33	147	39	25	1	Acquisiton	39	25	0.2000000000000000111	0.8000000000000000444	IRIF	0	-1	1	16	22	10		3	13	right	0	32	1.5	5
6.4.2	Reversal_Task	1	2021-09-22	09:33:14	fixation	Experiment_block_rightstart	+	100	81	33	292	33	147	39	25	1	Acquisiton	39	25	0.2000000000000000111	0.8000000000000000444	IRIF	0	-1	1	16	22	10		3	13	right	0	32	1.5	5
6.4.2	Reversal_Task	1	2021-09-22	09:33:14	presentation_right	Experiment_block_rightstart	umbrella.bmp	100	76	33	292	33	191	39	25	1	Acquisiton	39	25	0.2000000000000000111	0.8000000000000000444	IRIF	0	-1	1	17	23	10		4	13	right	0	32	1.5	5
6.4.2	Reversal_Task	1	2021-09-22	09:33:14	fixation	Experiment_block_rightstart	+	100	76	33	292	33	191	39	25	1	Acquisiton	39	25	0.2000000000000000111	0.8000000000000000444	IRIF	0	-1	1	17	23	10		4	13	right	0	32	1.5	5
6.4.2	Reversal_Task	1	2021-09-22	09:33:14	presentation_right	Experiment_block_rightstart	umbrella.bmp	100	72	33	292	33	227	39	25	1	Acquisiton	39	25	0.2000000000000000111	0.8000000000000000444	IRIF	0	-1	1	18	24	10		5	13	right	0	32	1.5	5
6.4.2	Reversal_Task	1	2021-09-22	09:33:14	fixation	Experiment_block_rightstart	+	100	72	33	292	33	227	39	25	1	Acquisiton	39	25	0.2000000000000000111	0.8000000000000000444	IRIF	0	-1	1	18	24	10		5	13	right	0	32	1.5	5
6.4.2	Reversal_Task	1	2021-09-22	09:33:14	presentation_right	Experiment_block_rightstart	umbrella.bmp	100	68	33	292	33	212	39	25	1	Acquisiton	39	25	0.2000000000000000111	0.8000000000000000444	IRCF	0	-1	-1	19	25	10		6	13	right	0	32	1.5	5
6.4.2	Reversal_Task	1	2021-09-22	09:33:14	fixation	Experiment_block_rightstart	+	100	68	33	292	33	212	39	25	1	Acquisiton	39	25	0.2000000000000000111	0.8000000000000000444	IRCF	0	-1	-1	19	25	11		6	13	right	0	32	1.5	5.5
6.4.2	Reversal_Task	1	2021-09-22	09:33:14	presentation_right	Experiment_block_rightstart	umbrella.bmp	100	70	33	292	36	206	39	25	1	Acquisiton	39	25	0.2000000000000000111	0.8000000000000000444	CRCF	0	1	1	20	26	11		6	14	right	0	32	1.5	5.5
6.4.2	Reversal_Task	1	2021-09-22	09:33:14	fixation	Experiment_block_rightstart	+	100	70	33	292	36	206	39	25	1	Acquisiton	39	25	0.2000000000000000111	0.8000000000000000444	CRCF	0	1	1	20	26	12		6	14	right	1	32	1.5	6
6.4.2	Reversal_Task	1	2021-09-22	09:33:14	presentation_right	Experiment_block_rightstart	umbrella.bmp	100	71	33	292	36	179	39	25	1	Acquisiton	39	25	0.2000000000000000111	0.8000000000000000444	CRCF	0	1	1	21	27	12		6	15	right	1	32	1.5	6
6.4.2	Reversal_Task	1	2021-09-22	09:33:14	fixation	Experiment_block_rightstart	+	100	71	33	292	36	179	39	25	1	Acquisiton	39	25	0.2000000000000000111	0.8000000000000000444	CRCF	0	1	1	21	27	13		6	15	right	2	32	1.5	6.5
6.4.2	Reversal_Task	1	2021-09-22	09:33:14	presentation_right	Experiment_block_rightstart	umbrella.bmp	100	72	33	292	36	127	39	25	1	Acquisiton	39	25	0.2000000000000000111	0.8000000000000000444	CRIF	0	1	-1	22	28	13		6	16	right	2	32	1.5	6.5
6.4.2	Reversal_Task	1	2021-09-22	09:33:14	fixation	Experiment_block_rightstart	+	100	72	33	292	36	127	39	25	1	Acquisiton	39	25	0.2000000000000000111	0.8000000000000000444	CRIF	0	1	-1	22	28	13		6	16	right	3	32	1.5	6.5
6.4.2	Reversal_Task	1	2021-09-22	09:33:14	presentation_right	Experiment_block_rightstart	umbrella.bmp	100	73	33	292	36	155	39	25	1	Acquisiton	39	25	0.2000000000000000111	0.8000000000000000444	CRCF	0	1	1	23	29	13		6	17	right	3	32	1.5	6.5
6.4.2	Reversal_Task	1	2021-09-22	09:33:14	fixation	Experiment_block_rightstart	+	100	73	33	292	36	155	39	25	1	Acquisiton	39	25	0.2000000000000000111	0.8000000000000000444	CRCF	0	1	1	23	29	14		6	17	right	4	32	1.5	7
6.4.2	Reversal_Task	1	2021-09-22	09:33:14	presentation_right	Experiment_block_rightstart	umbrella.bmp	100	75	33	292	36	192	39	25	1	Acquisiton	39	25	0.2000000000000000111	0.8000000000000000444	CRCF	0	1	1	24	30	14		6	18	right	4	32	1.5	7
6.4.2	Reversal_Task	1	2021-09-22	09:33:14	fixation	Experiment_block_rightstart	+	100	75	33	292	36	192	39	25	1	Acquisiton	39	25	0.2000000000000000111	0.8000000000000000444	CRCF	0	1	1	24	30	15		6	18	right	5	32	1.5	7.5
6.4.2	Reversal_Task	1	2021-09-22	09:33:14	presentation_right	Experiment_block_rightstart	umbrella.bmp	100	76	33	292	36	131	39	25	1	Acquisiton	39	25	0.2000000000000000111	0.8000000000000000444	CRCF	0	1	1	25	31	15		6	19	right	5	32	1.5	7.5
6.4.2	Reversal_Task	1	2021-09-22	09:33:14	fixation	Experiment_block_rightstart	+	100	76	33	292	36	131	39	25	1	Acquisiton	39	25	0.2000000000000000111	0.8000000000000000444	CRCF	0	1	1	25	31	16		6	19	right	6	32	1.5	8
6.4.2	Reversal_Task	1	2021-09-22	09:33:14	presentation_right	Experiment_block_rightstart	umbrella.bmp	100	76	33	292	36	153	39	25	1	Acquisiton	39	25	0.2000000000000000111	0.8000000000000000444	CRCF	0	1	1	26	32	16		6	20	right	6	32	1.5	8
6.4.2	Reversal_Task	1	2021-09-22	09:33:14	fixation	Experiment_block_rightstart	+	100	76	33	292	36	153	39	25	1	Acquisiton	39	25	0.2000000000000000111	0.8000000000000000444	CRCF	0	1	1	26	32	17		6	20	right	7	32	1.5	8.5
6.4.2	Reversal_Task	1	2021-09-22	09:33:14	presentation_right	Experiment_block_rightstart	umbrella.bmp	100	77	33	292	36	142	39	25	1	Acquisiton	39	25	0.2000000000000000111	0.8000000000000000444	CRCF	0	1	1	27	33	17		6	21	right	7	32	1.5	8.5
6.4.2	Reversal_Task	1	2021-09-22	09:33:14	fixation	Experiment_block_rightstart	+	100	77	33	292	36	142	39	25	1	Acquisiton	39	25	0.2000000000000000111	0.8000000000000000444	CRCF	0	1	1	27	33	18		6	21	right	8	32	1.5	9
6.4.2	Reversal_Task	1	2021-09-22	09:33:14	presentation_right	Experiment_block_rightstart	umbrella.bmp	100	78	33	292	36	163	39	25	1	Acquisiton	39	25	0.2000000000000000111	0.8000000000000000444	CRCF	0	1	1	28	34	18		6	22	right	8	32	1.5	9
6.4.2	Reversal_Task	1	2021-09-22	09:33:14	fixation	Experiment_block_rightstart	+	100	78	33	292	36	163	39	25	1	Acquisiton	39	25	0.2000000000000000111	0.8000000000000000444	CRCF	0	1	1	28	34	19		6	22	right	9	32	1.5	9.5
6.4.2	Reversal_Task	1	2021-09-22	09:33:14	presentation_right	Experiment_block_rightstart	umbrella.bmp	100	79	33	292	36	95	39	25	1	Acquisiton	39	25	0.2000000000000000111	0.8000000000000000444	CRCF	0	1	1	29	35	19		6	23	right	9	32	1.5	9.5
6.4.2	Reversal_Task	1	2021-09-22	09:33:14	fixation	Experiment_block_rightstart	+	100	79	33	292	36	95	39	25	1	Acquisiton	39	25	0.2000000000000000111	0.8000000000000000444	CRCF	0	1	1	29	35	20		6	23	right	10	32	1.5	10
6.4.2	Reversal_Task	1	2021-09-22	09:33:14	presentation_right	Experiment_block_rightstart	umbrella.bmp	100	80	33	292	36	62	39	25	1	Acquisiton	39	25	0.2000000000000000111	0.8000000000000000444	CRCF	0	1	1	30	36	20		6	24	right	10	32	1.5	10
6.4.2	Reversal_Task	1	2021-09-22	09:33:14	fixation	Experiment_block_rightstart	+	100	80	33	292	36	62	39	25	1	Acquisiton	39	25	0.2000000000000000111	0.8000000000000000444	CRCF	0	1	1	30	36	21		6	24	right	11	32	1.5	10.5
6.4.2	Reversal_Task	1	2021-09-22	09:33:14	presentation_right	Experiment_block_rightstart	umbrella.bmp	100	80	33	292	36	110	39	25	1	Acquisiton	39	25	0.2000000000000000111	0.8000000000000000444	CRCF	0	1	1	31	37	21		6	25	right	11	32	1.5	10.5
6.4.2	Reversal_Task	1	2021-09-22	09:33:14	fixation	Experiment_block_rightstart	+	100	80	33	292	36	110	39	25	1	Acquisiton	39	25	0.2000000000000000111	0.8000000000000000444	CRCF	0	1	1	31	37	22		6	25	right	12	32	1.5	11
6.4.2	Reversal_Task	1	2021-09-22	09:33:14	presentation_right	Experiment_block_rightstart	umbrella.bmp	100	81	33	292	36	421	39	25	1	Acquisiton	39	25	0.2000000000000000111	0.8000000000000000444	CRIF	0	1	-1	32	38	22		6	26	right	12	32	1.5	11
6.4.2	Reversal_Task	1	2021-09-22	09:33:14	fixation	Experiment_block_rightstart	+	100	81	33	292	36	421	39	25	1	Acquisiton	39	25	0.2000000000000000111	0.8000000000000000444	CRIF	0	1	-1	32	38	22		6	26	right	13	32	1.5	11
6.4.2	Reversal_Task	1	2021-09-22	09:33:14	presentation_left	Experiment_block_rightstart	umbrella.bmp	0	81	36	191	36	421	39	25	1	Reversal	39	25	0.8000000000000000444	0.2000000000000000111	IRIF	0	-1	1	33	39	22		6	27	left	13	32	1.5	11
6.4.2	Reversal_Task	1	2021-09-22	09:33:14	fixation	Experiment_block_rightstart	+	0	81	36	191	36	421	39	25	1	Reversal	39	25	0.8000000000000000444	0.2000000000000000111	IRIF	0	-1	1	33	39	22		6	27	left	0	32	1.5	11
6.4.2	Reversal_Task	1	2021-09-22	09:33:14	presentation_left	Experiment_block_rightstart	umbrella.bmp	0	81	36	160	36	421	39	25	1	Reversal	39	25	0.8000000000000000444	0.2000000000000000111	IRIF	0	-1	1	34	40	22		6	28	left	0	32	1.5	11
6.4.2	Reversal_Task	1	2021-09-22	09:33:14	fixation	Experiment_block_rightstart	+	0	81	36	160	36	421	39	25	1	Reversal	39	25	0.8000000000000000444	0.2000000000000000111	IRIF	0	-1	1	34	40	22		6	28	left	0	32	1.5	11
6.4.2	Reversal_Task	1	2021-09-22	09:33:14	presentation_left	Experiment_block_rightstart	umbrella.bmp	0	81	36	206	36	421	39	25	1	Reversal	39	25	0.8000000000000000444	0.2000000000000000111	IRIF	0	-1	1	35	41	22		6	29	left	0	32	1.5	11
6.4.2	Reversal_Task	1	2021-09-22	09:33:14	fixation	Experiment_block_rightstart	+	0	81	36	206	36	421	39	25	1	Reversal	39	25	0.8000000000000000444	0.2000000000000000111	IRIF	0	-1	1	35	41	22		6	29	left	0	32	1.5	11
6.4.2	Reversal_Task	1	2021-09-22	09:33:14	presentation_left	Experiment_block_rightstart	umbrella.bmp	0	81	36	146	36	421	39	25	1	Reversal	39	25	0.8000000000000000444	0.2000000000000000111	IRIF	0	-1	1	36	42	22		6	30	left	0	32	1.5	11
6.4.2	Reversal_Task	1	2021-09-22	09:33:14	fixation	Experiment_block_rightstart	+	0	81	36	146	36	421	39	25	1	Reversal	39	25	0.8000000000000000444	0.2000000000000000111	IRIF	0	-1	1	36	42	22		6	30	left	0	32	1.5	11
6.4.2	Reversal_Task	1	2021-09-22	09:33:14	presentation_left	Experiment_block_rightstart	umbrella.bmp	0	81	36	118	36	421	39	25	1	Reversal	39	25	0.8000000000000000444	0.2000000000000000111	IRIF	0	-1	1	37	43	22		6	31	left	0	32	1.5	11
6.4.2	Reversal_Task	1	2021-09-22	09:33:14	fixation	Experiment_block_rightstart	+	0	81	36	118	36	421	39	25	1	Reversal	39	25	0.8000000000000000444	0.2000000000000000111	IRIF	0	-1	1	37	43	22		6	31	left	0	32	1.5	11
6.4.2	Reversal_Task	1	2021-09-22	09:33:14	presentation_left	Experiment_block_rightstart	umbrella.bmp	0	81	36	213	36	421	39	25	1	Reversal	39	25	0.8000000000000000444	0.2000000000000000111	IRIF	0	-1	1	38	44	22		6	32	left	0	32	1.5	11
6.4.2	Reversal_Task	1	2021-09-22	09:33:14	fixation	Experiment_block_rightstart	+	0	81	36	213	36	421	39	25	1	Reversal	39	25	0.8000000000000000444	0.2000000000000000111	IRIF	0	-1	1	38	44	22		6	32	left	0	32	1.5	11
6.4.2	Reversal_Task	1	2021-09-22	09:33:14	presentation_left	Experiment_block_rightstart	umbrella.bmp	14	81	33	136	36	421	39	25	1	Reversal	39	25	0.8000000000000000444	0.2000000000000000111	CRCF	0	1	1	39	45	22		7	32	left	0	32	1.5	11
6.4.2	Reversal_Task	1	2021-09-22	09:33:14	fixation	Experiment_block_rightstart	+	14	81	33	136	36	421	39	25	1	Reversal	39	25	0.8000000000000000444	0.2000000000000000111	CRCF	0	1	1	39	45	23		7	32	left	1	32	1.5	11.5
6.4.2	Reversal_Task	1	2021-09-22	09:33:14	presentation_left	Experiment_block_rightstart	umbrella.bmp	25	81	33	477	36	421	39	25	1	Reversal	39	25	0.8000000000000000444	0.2000000000000000111	CRCF	0	1	1	40	46	23		8	32	left	1	32	1.5	11.5
6.4.2	Reversal_Task	1	2021-09-22	09:33:14	fixation	Experiment_block_rightstart	+	25	81	33	477	36	421	39	25	1	Reversal	39	25	0.8000000000000000444	0.2000000000000000111	CRCF	0	1	1	40	46	24		8	32	left	2	32	1.5	12
6.4.2	Reversal_Task	1	2021-09-22	09:33:14	presentation_left	Experiment_block_rightstart	umbrella.bmp	33	81	33	325	36	421	39	25	1	Reversal	39	25	0.8000000000000000444	0.2000000000000000111	CRCF	0	1	1	41	47	24		9	32	left	2	32	1.5	12
6.4.2	Reversal_Task	1	2021-09-22	09:33:14	fixation	Experiment_block_rightstart	+	33	81	33	325	36	421	39	25	1	Reversal	39	25	0.8000000000000000444	0.2000000000000000111	CRCF	0	1	1	41	47	25		9	32	left	3	32	1.5	12.5
6.4.2	Reversal_Task	1	2021-09-22	09:33:14	presentation_left	Experiment_block_rightstart	umbrella.bmp	40	81	33	8	36	421	39	25	1	Reversal	39	25	0.8000000000000000444	0.2000000000000000111	CRIF	0	1	-1	42	48	25		10	32	left	3	32	1.5	12.5
6.4.2	Reversal_Task	1	2021-09-22	09:33:14	fixation	Experiment_block_rightstart	+	40	81	33	8	36	421	39	25	1	Reversal	39	25	0.8000000000000000444	0.2000000000000000111	CRIF	0	1	-1	42	48	25		10	32	left	4	32	1.5	12.5
6.4.2	Reversal_Task	1	2021-09-22	09:33:14	presentation_left	Experiment_block_rightstart	umbrella.bmp	45	81	33	148	36	421	39	25	1	Reversal	39	25	0.8000000000000000444	0.2000000000000000111	CRIF	0	1	-1	43	49	25		11	32	left	4	32	1.5	12.5
6.4.2	Reversal_Task	1	2021-09-22	09:33:14	fixation	Experiment_block_rightstart	+	45	81	33	148	36	421	39	25	1	Reversal	39	25	0.8000000000000000444	0.2000000000000000111	CRIF	0	1	-1	43	49	25		11	32	left	5	32	1.5	12.5
6.4.2	Reversal_Task	1	2021-09-22	09:33:14	presentation_left	Experiment_block_rightstart	umbrella.bmp	50	81	33	106	36	421	39	25	1	Reversal	39	25	0.8000000000000000444	0.2000000000000000111	CRCF	0	1	1	44	50	25		12	32	left	5	32	1.5	12.5
6.4.2	Reversal_Task	1	2021-09-22	09:33:14	fixation	Experiment_block_rightstart	+	50	81	33	106	36	421	39	25	1	Reversal	39	25	0.8000000000000000444	0.2000000000000000111	CRCF	0	1	1	44	50	26		12	32	left	6	32	1.5	13
6.4.2	Reversal_Task	1	2021-09-22	09:33:14	presentation_left	Experiment_block_rightstart	umbrella.bmp	53	81	33	143	36	421	39	25	1	Reversal	39	25	0.8000000000000000444	0.2000000000000000111	CRCF	0	1	1	45	51	26		13	32	left	6	32	1.5	13
6.4.2	Reversal_Task	1	2021-09-22	09:33:14	fixation	Experiment_block_rightstart	+	53	81	33	143	36	421	39	25	1	Reversal	39	25	0.8000000000000000444	0.2000000000000000111	CRCF	0	1	1	45	51	27		13	32	left	7	32	1.5	13.5
6.4.2	Reversal_Task	1	2021-09-22	09:33:14	presentation_left	Experiment_block_rightstart	umbrella.bmp	50	81	36	13	36	421	39	25	1	Reversal	39	25	0.8000000000000000444	0.2000000000000000111	IRCF	0	-1	-1	46	52	27		13	33	left	7	32	1.5	13.5
6.4.2	Reversal_Task	1	2021-09-22	09:33:14	fixation	Experiment_block_rightstart	+	50	81	36	13	36	421	39	25	1	Reversal	39	25	0.8000000000000000444	0.2000000000000000111	IRCF	0	-1	-1	46	52	28		13	33	left	0	32	1.5	14
6.4.2	Reversal_Task	1	2021-09-22	09:33:14	presentation_left	Experiment_block_rightstart	umbrella.bmp	46	81	36	87	36	421	39	25	1	Reversal	39	25	0.8000000000000000444	0.2000000000000000111	IRIF	0	-1	1	47	53	28		13	34	left	0	32	1.5	14
6.4.2	Reversal_Task	1	2021-09-22	09:33:14	fixation	Experiment_block_rightstart	+	46	81	36	87	36	421	39	25	1	Reversal	39	25	0.8000000000000000444	0.2000000000000000111	IRIF	0	-1	1	47	53	28		13	34	left	0	32	1.5	14
6.4.2	Reversal_Task	1	2021-09-22	09:33:14	presentation_left	Experiment_block_rightstart	umbrella.bmp	43	81	36	136	36	421	39	25	1	Reversal	39	25	0.8000000000000000444	0.2000000000000000111	IRIF	0	-1	1	48	54	28		13	35	left	0	32	1.5	14
6.4.2	Reversal_Task	1	2021-09-22	09:33:14	fixation	Experiment_block_rightstart	+	43	81	36	136	36	421	39	25	1	Reversal	39	25	0.8000000000000000444	0.2000000000000000111	IRIF	0	-1	1	48	54	28		13	35	left	0	32	1.5	14
6.4.2	Reversal_Task	1	2021-09-22	09:33:14	presentation_left	Experiment_block_rightstart	umbrella.bmp	47	81	33	133	36	421	39	25	1	Reversal	39	25	0.8000000000000000444	0.2000000000000000111	CRCF	0	1	1	49	55	28		14	35	left	0	32	1.5	14
6.4.2	Reversal_Task	1	2021-09-22	09:33:14	fixation	Experiment_block_rightstart	+	47	81	33	133	36	421	39	25	1	Reversal	39	25	0.8000000000000000444	0.2000000000000000111	CRCF	0	1	1	49	55	29		14	35	left	1	32	1.5	14.5
6.4.2	Reversal_Task	1	2021-09-22	09:33:14	presentation_left	Experiment_block_rightstart	umbrella.bmp	50	81	33	90	36	421	39	25	1	Reversal	39	25	0.8000000000000000444	0.2000000000000000111	CRCF	0	1	1	50	56	29		15	35	left	1	32	1.5	14.5
6.4.2	Reversal_Task	1	2021-09-22	09:33:14	fixation	Experiment_block_rightstart	+	50	81	33	90	36	421	39	25	2	Reversal	39	25	0.8000000000000000444	0.2000000000000000111	CRCF	0	1	1	50	56	30		15	35	left	2	32	1.5	15
6.4.2	Reversal_Task	1	2021-09-22	09:33:14	reset_trial	Experiment_block_rightstart	Press SPACE to continue	50	81	33	90	36	421	39	25	2	Reversal	39	25	0.8000000000000000444	0.2000000000000000111	CRCF	0	1	1	50	56	30		0	0	left	2	32	1.5	15
6.4.2	Reversal_Task	1	2021-09-22	09:33:14	presentation_right	Experiment_block_rightstart	brush.bmp	50	0	33	90	33	484	11	27	2	Acquisiton	11	27	0.2000000000000000111	0.8000000000000000444	IRIF	0	-1	1	1	57	0		1	0	right	2	32	16.5	0
6.4.2	Reversal_Task	1	2021-09-22	09:33:14	fixation	Experiment_block_rightstart	+	50	0	33	90	33	484	11	27	2	Acquisiton	11	27	0.2000000000000000111	0.8000000000000000444	IRIF	0	-1	1	1	57	0		1	0	right	0	32	16.5	0
6.4.2	Reversal_Task	1	2021-09-22	09:33:14	presentation_right	Experiment_block_rightstart	brush.bmp	50	50	33	90	36	156	11	27	2	Acquisiton	11	27	0.2000000000000000111	0.8000000000000000444	CRIF	0	1	-1	2	58	0		1	1	right	0	32	16.5	0
6.4.2	Reversal_Task	1	2021-09-22	09:33:14	fixation	Experiment_block_rightstart	+	50	50	33	90	36	156	11	27	2	Acquisiton	11	27	0.2000000000000000111	0.8000000000000000444	CRIF	0	1	-1	2	58	0		1	1	right	1	32	16.5	0
6.4.2	Reversal_Task	1	2021-09-22	09:33:14	presentation_right	Experiment_block_rightstart	brush.bmp	50	33	33	90	33	111	11	27	2	Acquisiton	11	27	0.2000000000000000111	0.8000000000000000444	IRCF	0	-1	-1	3	59	0		2	1	right	1	32	16.5	0
6.4.2	Reversal_Task	1	2021-09-22	09:33:14	fixation	Experiment_block_rightstart	+	50	33	33	90	33	111	11	27	2	Acquisiton	11	27	0.2000000000000000111	0.8000000000000000444	IRCF	0	-1	-1	3	59	1		2	1	right	0	32	16.5	0.5
6.4.2	Reversal_Task	1	2021-09-22	09:33:14	presentation_right	Experiment_block_rightstart	brush.bmp	50	25	33	90	33	169	11	27	2	Acquisiton	11	27	0.2000000000000000111	0.8000000000000000444	IRIF	0	-1	1	4	60	1		3	1	right	0	32	16.5	0.5
6.4.2	Reversal_Task	1	2021-09-22	09:33:14	fixation	Experiment_block_rightstart	+	50	25	33	90	33	169	11	27	2	Acquisiton	11	27	0.2000000000000000111	0.8000000000000000444	IRIF	0	-1	1	4	60	1		3	1	right	0	32	16.5	0.5
6.4.2	Reversal_Task	1	2021-09-22	09:33:14	presentation_right	Experiment_block_rightstart	brush.bmp	50	20	33	90	33	101	11	27	2	Acquisiton	11	27	0.2000000000000000111	0.8000000000000000444	IRIF	0	-1	1	5	61	1		4	1	right	0	32	16.5	0.5
6.4.2	Reversal_Task	1	2021-09-22	09:33:14	fixation	Experiment_block_rightstart	+	50	20	33	90	33	101	11	27	2	Acquisiton	11	27	0.2000000000000000111	0.8000000000000000444	IRIF	0	-1	1	5	61	1		4	1	right	0	32	16.5	0.5
6.4.2	Reversal_Task	1	2021-09-22	09:33:14	presentation_right	Experiment_block_rightstart	brush.bmp	50	33	33	90	36	106	11	27	2	Acquisiton	11	27	0.2000000000000000111	0.8000000000000000444	CRCF	0	1	1	6	62	1		4	2	right	0	32	16.5	0.5
6.4.2	Reversal_Task	1	2021-09-22	09:33:14	fixation	Experiment_block_rightstart	+	50	33	33	90	36	106	11	27	2	Acquisiton	11	27	0.2000000000000000111	0.8000000000000000444	CRCF	0	1	1	6	62	2		4	2	right	1	32	16.5	1
6.4.2	Reversal_Task	1	2021-09-22	09:33:14	presentation_right	Experiment_block_rightstart	brush.bmp	50	42	33	90	36	147	11	27	2	Acquisiton	11	27	0.2000000000000000111	0.8000000000000000444	CRIF	0	1	-1	7	63	2		4	3	right	1	32	16.5	1
6.4.2	Reversal_Task	1	2021-09-22	09:33:14	fixation	Experiment_block_rightstart	+	50	42	33	90	36	147	11	27	2	Acquisiton	11	27	0.2000000000000000111	0.8000000000000000444	CRIF	0	1	-1	7	63	2		4	3	right	2	32	16.5	1
6.4.2	Reversal_Task	1	2021-09-22	09:33:14	presentation_right	Experiment_block_rightstart	brush.bmp	50	50	33	90	36	128	11	27	2	Acquisiton	11	27	0.2000000000000000111	0.8000000000000000444	CRCF	0	1	1	8	64	2		4	4	right	2	32	16.5	1
6.4.2	Reversal_Task	1	2021-09-22	09:33:14	fixation	Experiment_block_rightstart	+	50	50	33	90	36	128	11	27	2	Acquisiton	11	27	0.2000000000000000111	0.8000000000000000444	CRCF	0	1	1	8	64	3		4	4	right	3	32	16.5	1.5
6.4.2	Reversal_Task	1	2021-09-22	09:33:14	presentation_right	Experiment_block_rightstart	brush.bmp	50	55	33	90	36	117	11	27	2	Acquisiton	11	27	0.2000000000000000111	0.8000000000000000444	CRCF	0	1	1	9	65	3		4	5	right	3	32	16.5	1.5
6.4.2	Reversal_Task	1	2021-09-22	09:33:14	fixation	Experiment_block_rightstart	+	50	55	33	90	36	117	11	27	2	Acquisiton	11	27	0.2000000000000000111	0.8000000000000000444	CRCF	0	1	1	9	65	4		4	5	right	4	32	16.5	2
6.4.2	Reversal_Task	1	2021-09-22	09:33:14	presentation_right	Experiment_block_rightstart	brush.bmp	50	60	33	90	36	100	11	27	2	Acquisiton	11	27	0.2000000000000000111	0.8000000000000000444	CRCF	0	1	1	10	66	4		4	6	right	4	32	16.5	2
6.4.2	Reversal_Task	1	2021-09-22	09:33:14	fixation	Experiment_block_rightstart	+	50	60	33	90	36	100	11	27	2	Acquisiton	11	27	0.2000000000000000111	0.8000000000000000444	CRCF	0	1	1	10	66	5		4	6	right	5	32	16.5	2.5
6.4.2	Reversal_Task	1	2021-09-22	09:33:14	presentation_right	Experiment_block_rightstart	brush.bmp	50	63	33	90	36	36	11	27	2	Acquisiton	11	27	0.2000000000000000111	0.8000000000000000444	CRCF	0	1	1	11	67	5		4	7	right	5	32	16.5	2.5
6.4.2	Reversal_Task	1	2021-09-22	09:33:14	fixation	Experiment_block_rightstart	+	50	63	33	90	36	36	11	27	2	Acquisiton	11	27	0.2000000000000000111	0.8000000000000000444	CRCF	0	1	1	11	67	6		4	7	right	6	32	16.5	3
6.4.2	Reversal_Task	1	2021-09-22	09:33:14	presentation_right	Experiment_block_rightstart	brush.bmp	50	66	33	90	36	49	11	27	2	Acquisiton	11	27	0.2000000000000000111	0.8000000000000000444	CRCF	0	1	1	12	68	6		4	8	right	6	32	16.5	3
6.4.2	Reversal_Task	1	2021-09-22	09:33:14	fixation	Experiment_block_rightstart	+	50	66	33	90	36	49	11	27	2	Acquisiton	11	27	0.2000000000000000111	0.8000000000000000444	CRCF	0	1	1	12	68	7		4	8	right	7	32	16.5	3.5
6.4.2	Reversal_Task	1	2021-09-22	09:33:14	presentation_right	Experiment_block_rightstart	brush.bmp	50	69	33	90	36	172	11	27	2	Acquisiton	11	27	0.2000000000000000111	0.8000000000000000444	CRCF	0	1	1	13	69	7		4	9	right	7	32	16.5	3.5
6.4.2	Reversal_Task	1	2021-09-22	09:33:14	fixation	Experiment_block_rightstart	+	50	69	33	90	36	172	11	27	2	Acquisiton	11	27	0.2000000000000000111	0.8000000000000000444	CRCF	0	1	1	13	69	8		4	9	right	8	32	16.5	4
6.4.2	Reversal_Task	1	2021-09-22	09:33:14	presentation_right	Experiment_block_rightstart	brush.bmp	50	71	33	90	36	24	11	27	2	Acquisiton	11	27	0.2000000000000000111	0.8000000000000000444	CRIF	0	1	-1	14	70	8		4	10	right	8	32	16.5	4
6.4.2	Reversal_Task	1	2021-09-22	09:33:14	fixation	Experiment_block_rightstart	+	50	71	33	90	36	24	11	27	2	Acquisiton	11	27	0.2000000000000000111	0.8000000000000000444	CRIF	0	1	-1	14	70	8		4	10	right	9	32	16.5	4
6.4.2	Reversal_Task	1	2021-09-22	09:33:14	presentation_right	Experiment_block_rightstart	brush.bmp	50	73	33	90	36	353	11	27	2	Acquisiton	11	27	0.2000000000000000111	0.8000000000000000444	CRCF	0	1	1	15	71	8		4	11	right	9	32	16.5	4
6.4.2	Reversal_Task	1	2021-09-22	09:33:14	fixation	Experiment_block_rightstart	+	50	73	33	90	36	353	11	27	2	Acquisiton	11	27	0.2000000000000000111	0.8000000000000000444	CRCF	0	1	1	15	71	9		4	11	right	10	32	16.5	4.5
6.4.2	Reversal_Task	1	2021-09-22	09:33:14	presentation_right	Experiment_block_rightstart	brush.bmp	50	75	33	90	36	167	11	27	2	Acquisiton	11	27	0.2000000000000000111	0.8000000000000000444	CRIF	0	1	-1	16	72	9		4	12	right	10	32	16.5	4.5
6.4.2	Reversal_Task	1	2021-09-22	09:33:14	fixation	Experiment_block_rightstart	+	50	75	33	90	36	167	11	27	2	Acquisiton	11	27	0.2000000000000000111	0.8000000000000000444	CRIF	0	1	-1	16	72	9		4	12	right	11	32	16.5	4.5
6.4.2	Reversal_Task	1	2021-09-22	09:33:14	presentation_right	Experiment_block_rightstart	brush.bmp	50	76	33	90	36	194	11	27	2	Acquisiton	11	27	0.2000000000000000111	0.8000000000000000444	CRCF	0	1	1	17	73	9		4	13	right	11	32	16.5	4.5
6.4.2	Reversal_Task	1	2021-09-22	09:33:14	fixation	Experiment_block_rightstart	+	50	76	33	90	36	194	11	27	2	Acquisiton	11	27	0.2000000000000000111	0.8000000000000000444	CRCF	0	1	1	17	73	10		4	13	right	12	32	16.5	5
6.4.2	Reversal_Task	1	2021-09-22	09:33:14	presentation_right	Experiment_block_rightstart	brush.bmp	50	77	33	90	36	110	11	27	2	Acquisiton	11	27	0.2000000000000000111	0.8000000000000000444	CRCF	0	1	1	18	74	10		4	14	right	12	32	16.5	5
6.4.2	Reversal_Task	1	2021-09-22	09:33:14	fixation	Experiment_block_rightstart	+	50	77	33	90	36	110	11	27	2	Acquisiton	11	27	0.2000000000000000111	0.8000000000000000444	CRCF	0	1	1	18	74	11		4	14	right	13	32	16.5	5.5
6.4.2	Reversal_Task	1	2021-09-22	09:33:14	presentation_right	Experiment_block_rightstart	brush.bmp	50	78	33	90	36	204	11	27	2	Acquisiton	11	27	0.2000000000000000111	0.8000000000000000444	CRCF	0	1	1	19	75	11		4	15	right	13	32	16.5	5.5
6.4.2	Reversal_Task	1	2021-09-22	09:33:14	fixation	Experiment_block_rightstart	+	50	78	33	90	36	204	11	27	2	Acquisiton	11	27	0.2000000000000000111	0.8000000000000000444	CRCF	0	1	1	19	75	12		4	15	right	14	32	16.5	6
6.4.2	Reversal_Task	1	2021-09-22	09:33:14	presentation_right	Experiment_block_rightstart	brush.bmp	50	80	33	90	36	119	11	27	2	Acquisiton	11	27	0.2000000000000000111	0.8000000000000000444	CRCF	0	1	1	20	76	12		4	16	right	14	32	16.5	6
6.4.2	Reversal_Task	1	2021-09-22	09:33:14	fixation	Experiment_block_rightstart	+	50	80	33	90	36	119	11	27	2	Acquisiton	11	27	0.2000000000000000111	0.8000000000000000444	CRCF	0	1	1	20	76	13		4	16	right	15	32	16.5	6.5
6.4.2	Reversal_Task	1	2021-09-22	09:33:14	presentation_right	Experiment_block_rightstart	brush.bmp	50	80	33	90	36	127	11	27	2	Acquisiton	11	27	0.2000000000000000111	0.8000000000000000444	CRCF	0	1	1	21	77	13		4	17	right	15	32	16.5	6.5
6.4.2	Reversal_Task	1	2021-09-22	09:33:14	fixation	Experiment_block_rightstart	+	50	80	33	90	36	127	11	27	2	Acquisiton	11	27	0.2000000000000000111	0.8000000000000000444	CRCF	0	1	1	21	77	14		4	17	right	16	32	16.5	7
6.4.2	Reversal_Task	1	2021-09-22	09:33:14	presentation_right	Experiment_block_rightstart	brush.bmp	50	81	33	90	36	107	11	27	2	Acquisiton	11	27	0.2000000000000000111	0.8000000000000000444	CRIF	0	1	-1	22	78	14		4	18	right	16	32	16.5	7
6.4.2	Reversal_Task	1	2021-09-22	09:33:14	fixation	Experiment_block_rightstart	+	50	81	33	90	36	107	11	27	2	Acquisiton	11	27	0.2000000000000000111	0.8000000000000000444	CRIF	0	1	-1	22	78	14		4	18	right	17	32	16.5	7
6.4.2	Reversal_Task	1	2021-09-22	09:33:14	presentation_right	Experiment_block_rightstart	brush.bmp	50	82	33	90	36	137	11	27	2	Acquisiton	11	27	0.2000000000000000111	0.8000000000000000444	CRCF	0	1	1	23	79	14		4	19	right	17	32	16.5	7
6.4.2	Reversal_Task	1	2021-09-22	09:33:14	fixation	Experiment_block_rightstart	+	50	82	33	90	36	137	11	27	2	Acquisiton	11	27	0.2000000000000000111	0.8000000000000000444	CRCF	0	1	1	23	79	15		4	19	right	18	32	16.5	7.5
6.4.2	Reversal_Task	1	2021-09-22	09:33:14	presentation_right	Experiment_block_rightstart	brush.bmp	50	83	33	90	36	159	11	27	2	Acquisiton	11	27	0.2000000000000000111	0.8000000000000000444	CRCF	0	1	1	24	80	15		4	20	right	18	32	16.5	7.5
6.4.2	Reversal_Task	1	2021-09-22	09:33:14	fixation	Experiment_block_rightstart	+	50	83	33	90	36	159	11	27	2	Acquisiton	11	27	0.2000000000000000111	0.8000000000000000444	CRCF	0	1	1	24	80	16		4	20	right	19	32	16.5	8
6.4.2	Reversal_Task	1	2021-09-22	09:33:14	presentation_right	Experiment_block_rightstart	brush.bmp	50	84	33	90	36	28	11	27	2	Acquisiton	11	27	0.2000000000000000111	0.8000000000000000444	CRCF	0	1	1	25	81	16		4	21	right	19	32	16.5	8
6.4.2	Reversal_Task	1	2021-09-22	09:33:14	fixation	Experiment_block_rightstart	+	50	84	33	90	36	28	11	27	2	Acquisiton	11	27	0.2000000000000000111	0.8000000000000000444	CRCF	0	1	1	25	81	17		4	21	right	20	32	16.5	8.5
6.4.2	Reversal_Task	1	2021-09-22	09:33:14	presentation_right	Experiment_block_rightstart	brush.bmp	50	84	33	90	36	77	11	27	2	Acquisiton	11	27	0.2000000000000000111	0.8000000000000000444	CRCF	0	1	1	26	82	17		4	22	right	20	32	16.5	8.5
6.4.2	Reversal_Task	1	2021-09-22	09:33:14	fixation	Experiment_block_rightstart	+	50	84	33	90	36	77	11	27	2	Acquisiton	11	27	0.2000000000000000111	0.8000000000000000444	CRCF	0	1	1	26	82	18		4	22	right	21	32	16.5	9
6.4.2	Reversal_Task	1	2021-09-22	09:33:14	presentation_right	Experiment_block_rightstart	brush.bmp	50	85	33	90	36	109	11	27	2	Acquisiton	11	27	0.2000000000000000111	0.8000000000000000444	CRCF	0	1	1	27	83	18		4	23	right	21	32	16.5	9
6.4.2	Reversal_Task	1	2021-09-22	09:33:14	fixation	Experiment_block_rightstart	+	50	85	33	90	36	109	11	27	2	Acquisiton	11	27	0.2000000000000000111	0.8000000000000000444	CRCF	0	1	1	27	83	19		4	23	right	22	32	16.5	9.5
6.4.2	Reversal_Task	1	2021-09-22	09:33:14	presentation_right	Experiment_block_rightstart	brush.bmp	50	85	33	90	36	108	11	27	2	Acquisiton	11	27	0.2000000000000000111	0.8000000000000000444	CRCF	0	1	1	28	84	19		4	24	right	22	32	16.5	9.5
6.4.2	Reversal_Task	1	2021-09-22	09:33:14	fixation	Experiment_block_rightstart	+	50	85	33	90	36	108	11	27	2	Acquisiton	11	27	0.2000000000000000111	0.8000000000000000444	CRCF	0	1	1	28	84	20		4	24	right	23	32	16.5	10
6.4.2	Reversal_Task	1	2021-09-22	09:33:14	presentation_right	Experiment_block_rightstart	brush.bmp	50	86	33	90	36	79	11	27	2	Acquisiton	11	27	0.2000000000000000111	0.8000000000000000444	CRCF	0	1	1	29	85	20		4	25	right	23	32	16.5	10
6.4.2	Reversal_Task	1	2021-09-22	09:33:14	fixation	Experiment_block_rightstart	+	50	86	33	90	36	79	11	27	2	Acquisiton	11	27	0.2000000000000000111	0.8000000000000000444	CRCF	0	1	1	29	85	21		4	25	right	24	32	16.5	10.5
6.4.2	Reversal_Task	1	2021-09-22	09:33:14	presentation_right	Experiment_block_rightstart	brush.bmp	50	86	33	90	36	26	11	27	2	Acquisiton	11	27	0.2000000000000000111	0.8000000000000000444	CRCF	0	1	1	30	86	21		4	26	right	24	32	16.5	10.5
6.4.2	Reversal_Task	1	2021-09-22	09:33:14	fixation	Experiment_block_rightstart	+	50	86	33	90	36	26	11	27	2	Acquisiton	11	27	0.2000000000000000111	0.8000000000000000444	CRCF	0	1	1	30	86	22		4	26	right	25	32	16.5	11
6.4.2	Reversal_Task	1	2021-09-22	09:33:14	presentation_right	Experiment_block_rightstart	brush.bmp	50	87	33	90	36	18	11	27	2	Acquisiton	11	27	0.2000000000000000111	0.8000000000000000444	CRIF	0	1	-1	31	87	22		4	27	right	25	32	16.5	11
6.4.2	Reversal_Task	1	2021-09-22	09:33:14	fixation	Experiment_block_rightstart	+	50	87	33	90	36	18	11	27	2	Acquisiton	11	27	0.2000000000000000111	0.8000000000000000444	CRIF	0	1	-1	31	87	22		4	27	right	26	32	16.5	11
6.4.2	Reversal_Task	1	2021-09-22	09:33:14	presentation_right	Experiment_block_rightstart	brush.bmp	50	84	33	90	33	36	11	27	2	Acquisiton	11	27	0.2000000000000000111	0.8000000000000000444	IRIF	0	-1	1	32	88	22		5	27	right	26	32	16.5	11
6.4.2	Reversal_Task	1	2021-09-22	09:33:14	fixation	Experiment_block_rightstart	+	50	84	33	90	33	36	11	27	2	Acquisiton	11	27	0.2000000000000000111	0.8000000000000000444	IRIF	0	-1	1	32	88	22		5	27	right	0	32	16.5	11
6.4.2	Reversal_Task	1	2021-09-22	09:33:14	presentation_left	Experiment_block_rightstart	brush.bmp	52	84	33	13	33	36	11	27	2	Reversal	11	27	0.8000000000000000444	0.2000000000000000111	CRIF	0	1	-1	33	89	22		6	27	left	0	32	16.5	11
6.4.2	Reversal_Task	1	2021-09-22	09:33:14	fixation	Experiment_block_rightstart	+	52	84	33	13	33	36	11	27	2	Reversal	11	27	0.8000000000000000444	0.2000000000000000111	CRIF	0	1	-1	33	89	22		6	27	left	1	32	16.5	11
6.4.2	Reversal_Task	1	2021-09-22	09:33:14	presentation_left	Experiment_block_rightstart	brush.bmp	55	84	33	9	33	36	11	27	2	Reversal	11	27	0.8000000000000000444	0.2000000000000000111	CRCF	0	1	1	34	90	22		7	27	left	1	32	16.5	11
6.4.2	Reversal_Task	1	2021-09-22	09:33:14	fixation	Experiment_block_rightstart	+	55	84	33	9	33	36	11	27	2	Reversal	11	27	0.8000000000000000444	0.2000000000000000111	CRCF	0	1	1	34	90	23		7	27	left	2	32	16.5	11.5
6.4.2	Reversal_Task	1	2021-09-22	09:33:14	presentation_left	Experiment_block_rightstart	brush.bmp	57	84	33	146	33	36	11	27	2	Reversal	11	27	0.8000000000000000444	0.2000000000000000111	CRCF	0	1	1	35	91	23		8	27	left	2	32	16.5	11.5
6.4.2	Reversal_Task	1	2021-09-22	09:33:14	fixation	Experiment_block_rightstart	+	57	84	33	146	33	36	11	27	2	Reversal	11	27	0.8000000000000000444	0.2000000000000000111	CRCF	0	1	1	35	91	24		8	27	left	3	32	16.5	12
6.4.2	Reversal_Task	1	2021-09-22	09:33:14	presentation_left	Experiment_block_rightstart	brush.bmp	59	84	33	86	33	36	11	27	2	Reversal	11	27	0.8000000000000000444	0.2000000000000000111	CRCF	0	1	1	36	92	24		9	27	left	3	32	16.5	12
6.4.2	Reversal_Task	1	2021-09-22	09:33:14	fixation	Experiment_block_rightstart	+	59	84	33	86	33	36	11	27	2	Reversal	11	27	0.8000000000000000444	0.2000000000000000111	CRCF	0	1	1	36	92	25		9	27	left	4	32	16.5	12.5
6.4.2	Reversal_Task	1	2021-09-22	09:33:14	presentation_left	Experiment_block_rightstart	brush.bmp	60	84	33	31	33	36	11	27	2	Reversal	11	27	0.8000000000000000444	0.2000000000000000111	CRCF	0	1	1	37	93	25		10	27	left	4	32	16.5	12.5
6.4.2	Reversal_Task	1	2021-09-22	09:33:14	fixation	Experiment_block_rightstart	+	60	84	33	31	33	36	11	27	2	Reversal	11	27	0.8000000000000000444	0.2000000000000000111	CRCF	0	1	1	37	93	26		10	27	left	5	32	16.5	13
6.4.2	Reversal_Task	1	2021-09-22	09:33:14	presentation_left	Experiment_block_rightstart	brush.bmp	62	84	33	72	33	36	11	27	2	Reversal	11	27	0.8000000000000000444	0.2000000000000000111	CRIF	0	1	-1	38	94	26		11	27	left	5	32	16.5	13
6.4.2	Reversal_Task	1	2021-09-22	09:33:14	fixation	Experiment_block_rightstart	+	62	84	33	72	33	36	11	27	2	Reversal	11	27	0.8000000000000000444	0.2000000000000000111	CRIF	0	1	-1	38	94	26		11	27	left	6	32	16.5	13
6.4.2	Reversal_Task	1	2021-09-22	09:33:14	presentation_left	Experiment_block_rightstart	brush.bmp	64	84	33	78	33	36	11	27	2	Reversal	11	27	0.8000000000000000444	0.2000000000000000111	CRIF	0	1	-1	39	95	26		12	27	left	6	32	16.5	13
6.4.2	Reversal_Task	1	2021-09-22	09:33:14	fixation	Experiment_block_rightstart	+	64	84	33	78	33	36	11	27	2	Reversal	11	27	0.8000000000000000444	0.2000000000000000111	CRIF	0	1	-1	39	95	26		12	27	left	7	32	16.5	13
6.4.2	Reversal_Task	1	2021-09-22	09:33:14	presentation_left	Experiment_block_rightstart	brush.bmp	65	84	33	1	33	36	11	27	2	Reversal	11	27	0.8000000000000000444	0.2000000000000000111	CRCF	0	1	1	40	96	26		13	27	left	7	32	16.5	13
6.4.2	Reversal_Task	1	2021-09-22	09:33:14	fixation	Experiment_block_rightstart	+	65	84	33	1	33	36	11	27	2	Reversal	11	27	0.8000000000000000444	0.2000000000000000111	CRCF	0	1	1	40	96	27		13	27	left	8	32	16.5	13.5
6.4.2	Reversal_Task	1	2021-09-22	09:33:14	presentation_left	Experiment_block_rightstart	brush.bmp	66	84	33	10	33	36	11	27	2	Reversal	11	27	0.8000000000000000444	0.2000000000000000111	CRCF	0	1	1	41	97	27		14	27	left	8	32	16.5	13.5
6.4.2	Reversal_Task	1	2021-09-22	09:33:14	fixation	Experiment_block_rightstart	+	66	84	33	10	33	36	11	27	2	Reversal	11	27	0.8000000000000000444	0.2000000000000000111	CRCF	0	1	1	41	97	28		14	27	left	9	32	16.5	14
6.4.2	Reversal_Task	1	2021-09-22	09:33:14	presentation_left	Experiment_block_rightstart	brush.bmp	67	84	33	34	33	36	11	27	2	Reversal	11	27	0.8000000000000000444	0.2000000000000000111	CRCF	0	1	1	42	98	28		15	27	left	9	32	16.5	14
6.4.2	Reversal_Task	1	2021-09-22	09:33:14	fixation	Experiment_block_rightstart	+	67	84	33	34	33	36	11	27	2	Reversal	11	27	0.8000000000000000444	0.2000000000000000111	CRCF	0	1	1	42	98	29		15	27	left	10	32	16.5	14.5
6.4.2	Reversal_Task	1	2021-09-22	09:33:14	presentation_left	Experiment_block_rightstart	brush.bmp	68	84	33	5	33	36	11	27	2	Reversal	11	27	0.8000000000000000444	0.2000000000000000111	CRCF	0	1	1	43	99	29		16	27	left	10	32	16.5	14.5
6.4.2	Reversal_Task	1	2021-09-22	09:33:14	fixation	Experiment_block_rightstart	+	68	84	33	5	33	36	11	27	2	Reversal	11	27	0.8000000000000000444	0.2000000000000000111	CRCF	0	1	1	43	99	30		16	27	left	11	32	16.5	15
6.4.2	Reversal_Task	1	2021-09-22	09:33:14	presentation_left	Experiment_block_rightstart	brush.bmp	70	84	33	480	33	36	11	27	2	Reversal	11	27	0.8000000000000000444	0.2000000000000000111	CRIF	0	1	-1	44	100	30		17	27	left	11	32	16.5	15
6.4.2	Reversal_Task	1	2021-09-22	09:33:14	fixation	Experiment_block_rightstart	+	70	84	33	480	33	36	11	27	2	Reversal	11	27	0.8000000000000000444	0.2000000000000000111	CRIF	0	1	-1	44	100	30		17	27	left	12	32	16.5	15
6.4.2	Reversal_Task	1	2021-09-22	09:33:14	presentation_left	Experiment_block_rightstart	brush.bmp	67	84	36	64	33	36	11	27	2	Reversal	11	27	0.8000000000000000444	0.2000000000000000111	IRIF	0	-1	1	45	101	30		17	28	left	12	32	16.5	15
6.4.2	Reversal_Task	1	2021-09-22	09:33:14	fixation	Experiment_block_rightstart	+	67	84	36	64	33	36	11	27	2	Reversal	11	27	0.8000000000000000444	0.2000000000000000111	IRIF	0	-1	1	45	101	30		17	28	left	0	32	16.5	15
6.4.2	Reversal_Task	1	2021-09-22	09:33:14	presentation_left	Experiment_block_rightstart	brush.bmp	65	84	36	152	33	36	11	27	2	Reversal	11	27	0.8000000000000000444	0.2000000000000000111	IRIF	0	-1	1	46	102	30		17	29	left	0	32	16.5	15
6.4.2	Reversal_Task	1	2021-09-22	09:33:14	fixation	Experiment_block_rightstart	+	65	84	36	152	33	36	11	27	2	Reversal	11	27	0.8000000000000000444	0.2000000000000000111	IRIF	0	-1	1	46	102	30		17	29	left	0	32	16.5	15
6.4.2	Reversal_Task	1	2021-09-22	09:33:14	presentation_left	Experiment_block_rightstart	brush.bmp	63	84	36	76	33	36	11	27	2	Reversal	11	27	0.8000000000000000444	0.2000000000000000111	IRIF	0	-1	1	47	103	30		17	30	left	0	32	16.5	15
6.4.2	Reversal_Task	1	2021-09-22	09:33:14	fixation	Experiment_block_rightstart	+	63	84	36	76	33	36	11	27	2	Reversal	11	27	0.8000000000000000444	0.2000000000000000111	IRIF	0	-1	1	47	103	30		17	30	left	0	32	16.5	15
6.4.2	Reversal_Task	1	2021-09-22	09:33:14	presentation_left	Experiment_block_rightstart	brush.bmp	61	84	36	188	33	36	11	27	2	Reversal	11	27	0.8000000000000000444	0.2000000000000000111	IRCF	0	-1	-1	48	104	30		17	31	left	0	32	16.5	15
6.4.2	Reversal_Task	1	2021-09-22	09:33:14	fixation	Experiment_block_rightstart	+	61	84	36	188	33	36	11	27	2	Reversal	11	27	0.8000000000000000444	0.2000000000000000111	IRCF	0	-1	-1	48	104	31		17	31	left	0	32	16.5	15.5
6.4.2	Reversal_Task	1	2021-09-22	09:33:14	presentation_left	Experiment_block_rightstart	brush.bmp	60	84	36	209	33	36	11	27	2	Reversal	11	27	0.8000000000000000444	0.2000000000000000111	IRIF	0	-1	1	49	105	31		17	32	left	0	32	16.5	15.5
6.4.2	Reversal_Task	1	2021-09-22	09:33:14	fixation	Experiment_block_rightstart	+	60	84	36	209	33	36	11	27	2	Reversal	11	27	0.8000000000000000444	0.2000000000000000111	IRIF	0	-1	1	49	105	31		17	32	left	0	32	16.5	15.5
6.4.2	Reversal_Task	1	2021-09-22	09:33:14	presentation_left	Experiment_block_rightstart	brush.bmp	58	84	36	90	33	36	11	27	2	Reversal	11	27	0.8000000000000000444	0.2000000000000000111	IRCF	0	-1	-1	50	106	31		17	33	left	0	32	16.5	15.5
6.4.2	Reversal_Task	1	2021-09-22	09:33:14	fixation	Experiment_block_rightstart	+	58	84	36	90	33	36	11	27	3	Reversal	11	27	0.8000000000000000444	0.2000000000000000111	IRCF	0	-1	-1	50	106	32		17	33	left	0	32	16.5	16
6.4.2	Reversal_Task	1	2021-09-22	09:33:14	reset_trial	Experiment_block_rightstart	Press SPACE to continue	58	84	36	90	33	36	11	27	3	Reversal	11	27	0.8000000000000000444	0.2000000000000000111	IRCF	0	-1	-1	50	106	32		0	0	left	0	25	16.5	16
6.4.2	Reversal_Task	1	2021-09-22	09:33:14	presentation_right	Experiment_block_rightstart	carriage.bmp	58	0	36	90	33	781	4	26	3	Acquisiton	4	26	0.2000000000000000111	0.8000000000000000444	IRIF	0	-1	1	1	107	0		1	0	right	0	25	32.5	0
6.4.2	Reversal_Task	1	2021-09-22	09:33:14	fixation	Experiment_block_rightstart	+	58	0	36	90	33	781	4	26	3	Acquisiton	4	26	0.2000000000000000111	0.8000000000000000444	IRIF	0	-1	1	1	107	0		1	0	right	0	25	32.5	0
6.4.2	Reversal_Task	1	2021-09-22	09:33:14	presentation_right	Experiment_block_rightstart	carriage.bmp	58	50	36	90	36	136	4	26	3	Acquisiton	4	26	0.2000000000000000111	0.8000000000000000444	CRCF	0	1	1	2	108	0		1	1	right	0	25	32.5	0
6.4.2	Reversal_Task	1	2021-09-22	09:33:14	fixation	Experiment_block_rightstart	+	58	50	36	90	36	136	4	26	3	Acquisiton	4	26	0.2000000000000000111	0.8000000000000000444	CRCF	0	1	1	2	108	1		1	1	right	1	25	32.5	0.5
6.4.2	Reversal_Task	1	2021-09-22	09:33:14	presentation_right	Experiment_block_rightstart	carriage.bmp	58	66	36	90	36	119	4	26	3	Acquisiton	4	26	0.2000000000000000111	0.8000000000000000444	CRCF	0	1	1	3	109	1		1	2	right	1	25	32.5	0.5
6.4.2	Reversal_Task	1	2021-09-22	09:33:14	fixation	Experiment_block_rightstart	+	58	66	36	90	36	119	4	26	3	Acquisiton	4	26	0.2000000000000000111	0.8000000000000000444	CRCF	0	1	1	3	109	2		1	2	right	2	25	32.5	1
6.4.2	Reversal_Task	1	2021-09-22	09:33:14	presentation_right	Experiment_block_rightstart	carriage.bmp	58	75	36	90	36	5	4	26	3	Acquisiton	4	26	0.2000000000000000111	0.8000000000000000444	CRCF	0	1	1	4	110	2		1	3	right	2	25	32.5	1
6.4.2	Reversal_Task	1	2021-09-22	09:33:14	fixation	Experiment_block_rightstart	+	58	75	36	90	36	5	4	26	3	Acquisiton	4	26	0.2000000000000000111	0.8000000000000000444	CRCF	0	1	1	4	110	3		1	3	right	3	25	32.5	1.5
6.4.2	Reversal_Task	1	2021-09-22	09:33:14	presentation_right	Experiment_block_rightstart	carriage.bmp	58	80	36	90	36	81	4	26	3	Acquisiton	4	26	0.2000000000000000111	0.8000000000000000444	CRCF	0	1	1	5	111	3		1	4	right	3	25	32.5	1.5
6.4.2	Reversal_Task	1	2021-09-22	09:33:14	fixation	Experiment_block_rightstart	+	58	80	36	90	36	81	4	26	3	Acquisiton	4	26	0.2000000000000000111	0.8000000000000000444	CRCF	0	1	1	5	111	4		1	4	right	4	25	32.5	2
6.4.2	Reversal_Task	1	2021-09-22	09:33:14	presentation_right	Experiment_block_rightstart	carriage.bmp	58	83	36	90	36	104	4	26	3	Acquisiton	4	26	0.2000000000000000111	0.8000000000000000444	CRCF	0	1	1	6	112	4		1	5	right	4	25	32.5	2
6.4.2	Reversal_Task	1	2021-09-22	09:33:14	fixation	Experiment_block_rightstart	+	58	83	36	90	36	104	4	26	3	Acquisiton	4	26	0.2000000000000000111	0.8000000000000000444	CRCF	0	1	1	6	112	5		1	5	right	5	25	32.5	2.5
6.4.2	Reversal_Task	1	2021-09-22	09:33:14	presentation_right	Experiment_block_rightstart	carriage.bmp	58	85	36	90	36	6	4	26	3	Acquisiton	4	26	0.2000000000000000111	0.8000000000000000444	CRCF	0	1	1	7	113	5		1	6	right	5	25	32.5	2.5
6.4.2	Reversal_Task	1	2021-09-22	09:33:14	fixation	Experiment_block_rightstart	+	58	85	36	90	36	6	4	26	3	Acquisiton	4	26	0.2000000000000000111	0.8000000000000000444	CRCF	0	1	1	7	113	6		1	6	right	6	25	32.5	3
6.4.2	Reversal_Task	1	2021-09-22	09:33:14	presentation_right	Experiment_block_rightstart	carriage.bmp	58	87	36	90	36	387	4	26	3	Acquisiton	4	26	0.2000000000000000111	0.8000000000000000444	CRCF	0	1	1	8	114	6		1	7	right	6	25	32.5	3
6.4.2	Reversal_Task	1	2021-09-22	09:33:14	fixation	Experiment_block_rightstart	+	58	87	36	90	36	387	4	26	3	Acquisiton	4	26	0.2000000000000000111	0.8000000000000000444	CRCF	0	1	1	8	114	7		1	7	right	7	25	32.5	3.5
6.4.2	Reversal_Task	1	2021-09-22	09:33:14	presentation_right	Experiment_block_rightstart	carriage.bmp	58	88	36	90	36	38	4	26	3	Acquisiton	4	26	0.2000000000000000111	0.8000000000000000444	CRCF	0	1	1	9	115	7		1	8	right	7	25	32.5	3.5
6.4.2	Reversal_Task	1	2021-09-22	09:33:14	fixation	Experiment_block_rightstart	+	58	88	36	90	36	38	4	26	3	Acquisiton	4	26	0.2000000000000000111	0.8000000000000000444	CRCF	0	1	1	9	115	8		1	8	right	8	25	32.5	4
6.4.2	Reversal_Task	1	2021-09-22	09:33:14	presentation_right	Experiment_block_rightstart	carriage.bmp	58	90	36	90	36	375	4	26	3	Acquisiton	4	26	0.2000000000000000111	0.8000000000000000444	CRIF	0	1	-1	10	116	8		1	9	right	8	25	32.5	4
6.4.2	Reversal_Task	1	2021-09-22	09:33:14	fixation	Experiment_block_rightstart	+	58	90	36	90	36	375	4	26	3	Acquisiton	4	26	0.2000000000000000111	0.8000000000000000444	CRIF	0	1	-1	10	116	8		1	9	right	9	25	32.5	4
6.4.2	Reversal_Task	1	2021-09-22	09:33:14	presentation_right	Experiment_block_rightstart	carriage.bmp	58	90	36	90	36	187	4	26	3	Acquisiton	4	26	0.2000000000000000111	0.8000000000000000444	CRCF	0	1	1	11	117	8		1	10	right	9	25	32.5	4
6.4.2	Reversal_Task	1	2021-09-22	09:33:14	fixation	Experiment_block_rightstart	+	58	90	36	90	36	187	4	26	3	Acquisiton	4	26	0.2000000000000000111	0.8000000000000000444	CRCF	0	1	1	11	117	9		1	10	right	10	25	32.5	4.5
6.4.2	Reversal_Task	1	2021-09-22	09:33:14	presentation_right	Experiment_block_rightstart	carriage.bmp	58	91	36	90	36	143	4	26	3	Acquisiton	4	26	0.2000000000000000111	0.8000000000000000444	CRCF	0	1	1	12	118	9		1	11	right	10	25	32.5	4.5
6.4.2	Reversal_Task	1	2021-09-22	09:33:14	fixation	Experiment_block_rightstart	+	58	91	36	90	36	143	4	26	3	Acquisiton	4	26	0.2000000000000000111	0.8000000000000000444	CRCF	0	1	1	12	118	10		1	11	right	11	25	32.5	5
6.4.2	Reversal_Task	1	2021-09-22	09:33:14	presentation_right	Experiment_block_rightstart	carriage.bmp	58	92	36	90	36	131	4	26	3	Acquisiton	4	26	0.2000000000000000111	0.8000000000000000444	CRIF	0	1	-1	13	119	10		1	12	right	11	25	32.5	5
6.4.2	Reversal_Task	1	2021-09-22	09:33:14	fixation	Experiment_block_rightstart	+	58	92	36	90	36	131	4	26	3	Acquisiton	4	26	0.2000000000000000111	0.8000000000000000444	CRIF	0	1	-1	13	119	10		1	12	right	12	25	32.5	5
6.4.2	Reversal_Task	1	2021-09-22	09:33:14	presentation_right	Experiment_block_rightstart	carriage.bmp	58	92	36	90	36	73	4	26	3	Acquisiton	4	26	0.2000000000000000111	0.8000000000000000444	CRCF	0	1	1	14	120	10		1	13	right	12	25	32.5	5
6.4.2	Reversal_Task	1	2021-09-22	09:33:14	fixation	Experiment_block_rightstart	+	58	92	36	90	36	73	4	26	3	Acquisiton	4	26	0.2000000000000000111	0.8000000000000000444	CRCF	0	1	1	14	120	11		1	13	right	13	25	32.5	5.5
6.4.2	Reversal_Task	1	2021-09-22	09:33:14	presentation_right	Experiment_block_rightstart	carriage.bmp	58	93	36	90	36	323	4	26	3	Acquisiton	4	26	0.2000000000000000111	0.8000000000000000444	CRIF	0	1	-1	15	121	11		1	14	right	13	25	32.5	5.5
6.4.2	Reversal_Task	1	2021-09-22	09:33:14	fixation	Experiment_block_rightstart	+	58	93	36	90	36	323	4	26	3	Acquisiton	4	26	0.2000000000000000111	0.8000000000000000444	CRIF	0	1	-1	15	121	11		1	14	right	14	25	32.5	5.5
6.4.2	Reversal_Task	1	2021-09-22	09:33:14	presentation_right	Experiment_block_rightstart	carriage.bmp	58	93	36	90	36	119	4	26	3	Acquisiton	4	26	0.2000000000000000111	0.8000000000000000444	CRIF	0	1	-1	16	122	11		1	15	right	14	25	32.5	5.5
6.4.2	Reversal_Task	1	2021-09-22	09:33:14	fixation	Experiment_block_rightstart	+	58	93	36	90	36	119	4	26	3	Acquisiton	4	26	0.2000000000000000111	0.8000000000000000444	CRIF	0	1	-1	16	122	11		1	15	right	15	25	32.5	5.5
6.4.2	Reversal_Task	1	2021-09-22	09:33:14	presentation_right	Experiment_block_rightstart	carriage.bmp	58	94	36	90	36	118	4	26	3	Acquisiton	4	26	0.2000000000000000111	0.8000000000000000444	CRIF	0	1	-1	17	123	11		1	16	right	15	25	32.5	5.5
6.4.2	Reversal_Task	1	2021-09-22	09:33:14	fixation	Experiment_block_rightstart	+	58	94	36	90	36	118	4	26	3	Acquisiton	4	26	0.2000000000000000111	0.8000000000000000444	CRIF	0	1	-1	17	123	11		1	16	right	16	25	32.5	5.5
6.4.2	Reversal_Task	1	2021-09-22	09:33:14	presentation_right	Experiment_block_rightstart	carriage.bmp	58	94	36	90	36	132	4	26	3	Acquisiton	4	26	0.2000000000000000111	0.8000000000000000444	CRCF	0	1	1	18	124	11		1	17	right	16	25	32.5	5.5
6.4.2	Reversal_Task	1	2021-09-22	09:33:14	fixation	Experiment_block_rightstart	+	58	94	36	90	36	132	4	26	3	Acquisiton	4	26	0.2000000000000000111	0.8000000000000000444	CRCF	0	1	1	18	124	12		1	17	right	17	25	32.5	6
6.4.2	Reversal_Task	1	2021-09-22	09:33:14	presentation_right	Experiment_block_rightstart	carriage.bmp	58	94	36	90	36	121	4	26	3	Acquisiton	4	26	0.2000000000000000111	0.8000000000000000444	CRCF	0	1	1	19	125	12		1	18	right	17	25	32.5	6
6.4.2	Reversal_Task	1	2021-09-22	09:33:14	fixation	Experiment_block_rightstart	+	58	94	36	90	36	121	4	26	3	Acquisiton	4	26	0.2000000000000000111	0.8000000000000000444	CRCF	0	1	1	19	125	13		1	18	right	18	25	32.5	6.5
6.4.2	Reversal_Task	1	2021-09-22	09:33:14	presentation_right	Experiment_block_rightstart	carriage.bmp	58	95	36	90	36	137	4	26	3	Acquisiton	4	26	0.2000000000000000111	0.8000000000000000444	CRCF	0	1	1	20	126	13		1	19	right	18	25	32.5	6.5
6.4.2	Reversal_Task	1	2021-09-22	09:33:14	fixation	Experiment_block_rightstart	+	58	95	36	90	36	137	4	26	3	Acquisiton	4	26	0.2000000000000000111	0.8000000000000000444	CRCF	0	1	1	20	126	14		1	19	right	19	25	32.5	7
6.4.2	Reversal_Task	1	2021-09-22	09:33:14	presentation_right	Experiment_block_rightstart	carriage.bmp	58	95	36	90	36	78	4	26	3	Acquisiton	4	26	0.2000000000000000111	0.8000000000000000444	CRCF	0	1	1	21	127	14		1	20	right	19	25	32.5	7
6.4.2	Reversal_Task	1	2021-09-22	09:33:14	fixation	Experiment_block_rightstart	+	58	95	36	90	36	78	4	26	3	Acquisiton	4	26	0.2000000000000000111	0.8000000000000000444	CRCF	0	1	1	21	127	15		1	20	right	20	25	32.5	7.5
6.4.2	Reversal_Task	1	2021-09-22	09:33:14	presentation_right	Experiment_block_rightstart	carriage.bmp	58	95	36	90	36	406	4	26	3	Acquisiton	4	26	0.2000000000000000111	0.8000000000000000444	CRIF	0	1	-1	22	128	15		1	21	right	20	25	32.5	7.5
6.4.2	Reversal_Task	1	2021-09-22	09:33:14	fixation	Experiment_block_rightstart	+	58	95	36	90	36	406	4	26	3	Acquisiton	4	26	0.2000000000000000111	0.8000000000000000444	CRIF	0	1	-1	22	128	15		1	21	right	21	25	32.5	7.5
6.4.2	Reversal_Task	1	2021-09-22	09:33:14	presentation_right	Experiment_block_rightstart	carriage.bmp	58	95	36	90	36	96	4	26	3	Acquisiton	4	26	0.2000000000000000111	0.8000000000000000444	CRCF	0	1	1	23	129	15		1	22	right	21	25	32.5	7.5
6.4.2	Reversal_Task	1	2021-09-22	09:33:14	fixation	Experiment_block_rightstart	+	58	95	36	90	36	96	4	26	3	Acquisiton	4	26	0.2000000000000000111	0.8000000000000000444	CRCF	0	1	1	23	129	16		1	22	right	22	25	32.5	8
6.4.2	Reversal_Task	1	2021-09-22	09:33:14	presentation_right	Experiment_block_rightstart	carriage.bmp	58	95	36	90	36	55	4	26	3	Acquisiton	4	26	0.2000000000000000111	0.8000000000000000444	CRCF	0	1	1	24	130	16		1	23	right	22	25	32.5	8
6.4.2	Reversal_Task	1	2021-09-22	09:33:14	fixation	Experiment_block_rightstart	+	58	95	36	90	36	55	4	26	3	Acquisiton	4	26	0.2000000000000000111	0.8000000000000000444	CRCF	0	1	1	24	130	17		1	23	right	23	25	32.5	8.5
6.4.2	Reversal_Task	1	2021-09-22	09:33:14	presentation_right	Experiment_block_rightstart	carriage.bmp	58	96	36	90	36	31	4	26	3	Acquisiton	4	26	0.2000000000000000111	0.8000000000000000444	CRCF	0	1	1	25	131	17		1	24	right	23	25	32.5	8.5
6.4.2	Reversal_Task	1	2021-09-22	09:33:14	fixation	Experiment_block_rightstart	+	58	96	36	90	36	31	4	26	3	Acquisiton	4	26	0.2000000000000000111	0.8000000000000000444	CRCF	0	1	1	25	131	18		1	24	right	24	25	32.5	9
6.4.2	Reversal_Task	1	2021-09-22	09:33:14	presentation_left	Experiment_block_rightstart	carriage.bmp	56	96	36	161	36	31	4	26	3	Reversal	4	26	0.8000000000000000444	0.2000000000000000111	IRCF	0	-1	-1	26	132	18		1	25	left	24	25	32.5	9
6.4.2	Reversal_Task	1	2021-09-22	09:33:14	fixation	Experiment_block_rightstart	+	56	96	36	161	36	31	4	26	3	Reversal	4	26	0.8000000000000000444	0.2000000000000000111	IRCF	0	-1	-1	26	132	19		1	25	left	0	25	32.5	9.5
6.4.2	Reversal_Task	1	2021-09-22	09:33:14	presentation_left	Experiment_block_rightstart	carriage.bmp	55	96	36	437	36	31	4	26	3	Reversal	4	26	0.8000000000000000444	0.2000000000000000111	IRIF	0	-1	1	27	133	19		1	26	left	0	25	32.5	9.5
6.4.2	Reversal_Task	1	2021-09-22	09:33:14	fixation	Experiment_block_rightstart	+	55	96	36	437	36	31	4	26	3	Reversal	4	26	0.8000000000000000444	0.2000000000000000111	IRIF	0	-1	1	27	133	19		1	26	left	0	25	32.5	9.5
6.4.2	Reversal_Task	1	2021-09-22	09:33:14	presentation_left	Experiment_block_rightstart	carriage.bmp	56	96	33	255	36	31	4	26	3	Reversal	4	26	0.8000000000000000444	0.2000000000000000111	CRCF	0	1	1	28	134	19		2	26	left	0	25	32.5	9.5
6.4.2	Reversal_Task	1	2021-09-22	09:33:14	fixation	Experiment_block_rightstart	+	56	96	33	255	36	31	4	26	3	Reversal	4	26	0.8000000000000000444	0.2000000000000000111	CRCF	0	1	1	28	134	20		2	26	left	1	25	32.5	10
6.4.2	Reversal_Task	1	2021-09-22	09:33:14	presentation_left	Experiment_block_rightstart	carriage.bmp	57	96	33	303	36	31	4	26	3	Reversal	4	26	0.8000000000000000444	0.2000000000000000111	CRCF	0	1	1	29	135	20		3	26	left	1	25	32.5	10
6.4.2	Reversal_Task	1	2021-09-22	09:33:14	fixation	Experiment_block_rightstart	+	57	96	33	303	36	31	4	26	3	Reversal	4	26	0.8000000000000000444	0.2000000000000000111	CRCF	0	1	1	29	135	21		3	26	left	2	25	32.5	10.5
6.4.2	Reversal_Task	1	2021-09-22	09:33:14	presentation_left	Experiment_block_rightstart	carriage.bmp	58	96	33	22	36	31	4	26	3	Reversal	4	26	0.8000000000000000444	0.2000000000000000111	CRCF	0	1	1	30	136	21		4	26	left	2	25	32.5	10.5
6.4.2	Reversal_Task	1	2021-09-22	09:33:14	fixation	Experiment_block_rightstart	+	58	96	33	22	36	31	4	26	3	Reversal	4	26	0.8000000000000000444	0.2000000000000000111	CRCF	0	1	1	30	136	22		4	26	left	3	25	32.5	11
6.4.2	Reversal_Task	1	2021-09-22	09:33:14	presentation_left	Experiment_block_rightstart	carriage.bmp	59	96	33	143	36	31	4	26	3	Reversal	4	26	0.8000000000000000444	0.2000000000000000111	CRCF	0	1	1	31	137	22		5	26	left	3	25	32.5	11
6.4.2	Reversal_Task	1	2021-09-22	09:33:14	fixation	Experiment_block_rightstart	+	59	96	33	143	36	31	4	26	3	Reversal	4	26	0.8000000000000000444	0.2000000000000000111	CRCF	0	1	1	31	137	23		5	26	left	4	25	32.5	11.5
6.4.2	Reversal_Task	1	2021-09-22	09:33:14	presentation_left	Experiment_block_rightstart	carriage.bmp	60	96	33	116	36	31	4	26	3	Reversal	4	26	0.8000000000000000444	0.2000000000000000111	CRCF	0	1	1	32	138	23		6	26	left	4	25	32.5	11.5
6.4.2	Reversal_Task	1	2021-09-22	09:33:14	fixation	Experiment_block_rightstart	+	60	96	33	116	36	31	4	26	3	Reversal	4	26	0.8000000000000000444	0.2000000000000000111	CRCF	0	1	1	32	138	24		6	26	left	5	25	32.5	12
6.4.2	Reversal_Task	1	2021-09-22	09:33:14	presentation_left	Experiment_block_rightstart	carriage.bmp	61	96	33	235	36	31	4	26	3	Reversal	4	26	0.8000000000000000444	0.2000000000000000111	CRCF	0	1	1	33	139	24		7	26	left	5	25	32.5	12
6.4.2	Reversal_Task	1	2021-09-22	09:33:14	fixation	Experiment_block_rightstart	+	61	96	33	235	36	31	4	26	3	Reversal	4	26	0.8000000000000000444	0.2000000000000000111	CRCF	0	1	1	33	139	25		7	26	left	6	25	32.5	12.5
6.4.2	Reversal_Task	1	2021-09-22	09:33:14	presentation_left	Experiment_block_rightstart	carriage.bmp	62	96	33	141	36	31	4	26	3	Reversal	4	26	0.8000000000000000444	0.2000000000000000111	CRCF	0	1	1	34	140	25		8	26	left	6	25	32.5	12.5
6.4.2	Reversal_Task	1	2021-09-22	09:33:14	fixation	Experiment_block_rightstart	+	62	96	33	141	36	31	4	26	3	Reversal	4	26	0.8000000000000000444	0.2000000000000000111	CRCF	0	1	1	34	140	26		8	26	left	7	25	32.5	13
6.4.2	Reversal_Task	1	2021-09-22	09:33:14	presentation_left	Experiment_block_rightstart	carriage.bmp	63	96	33	42	36	31	4	26	3	Reversal	4	26	0.8000000000000000444	0.2000000000000000111	CRCF	0	1	1	35	141	26		9	26	left	7	25	32.5	13
6.4.2	Reversal_Task	1	2021-09-22	09:33:14	fixation	Experiment_block_rightstart	+	63	96	33	42	36	31	4	26	3	Reversal	4	26	0.8000000000000000444	0.2000000000000000111	CRCF	0	1	1	35	141	27		9	26	left	8	25	32.5	13.5
6.4.2	Reversal_Task	1	2021-09-22	09:33:14	presentation_left	Experiment_block_rightstart	carriage.bmp	63	96	33	179	36	31	4	26	3	Reversal	4	26	0.8000000000000000444	0.2000000000000000111	CRIF	0	1	-1	36	142	27		10	26	left	8	25	32.5	13.5
6.4.2	Reversal_Task	1	2021-09-22	09:33:14	fixation	Experiment_block_rightstart	+	63	96	33	179	36	31	4	26	3	Reversal	4	26	0.8000000000000000444	0.2000000000000000111	CRIF	0	1	-1	36	142	27		10	26	left	9	25	32.5	13.5
6.4.2	Reversal_Task	1	2021-09-22	09:33:14	presentation_left	Experiment_block_rightstart	carriage.bmp	64	96	33	31	36	31	4	26	3	Reversal	4	26	0.8000000000000000444	0.2000000000000000111	CRIF	0	1	-1	37	143	27		11	26	left	9	25	32.5	13.5
6.4.2	Reversal_Task	1	2021-09-22	09:33:14	fixation	Experiment_block_rightstart	+	64	96	33	31	36	31	4	26	3	Reversal	4	26	0.8000000000000000444	0.2000000000000000111	CRIF	0	1	-1	37	143	27		11	26	left	10	25	32.5	13.5
6.4.2	Reversal_Task	1	2021-09-22	09:33:14	presentation_left	Experiment_block_rightstart	carriage.bmp	65	96	33	159	36	31	4	26	3	Reversal	4	26	0.8000000000000000444	0.2000000000000000111	CRCF	0	1	1	38	144	27		12	26	left	10	25	32.5	13.5
6.4.2	Reversal_Task	1	2021-09-22	09:33:14	fixation	Experiment_block_rightstart	+	65	96	33	159	36	31	4	26	3	Reversal	4	26	0.8000000000000000444	0.2000000000000000111	CRCF	0	1	1	38	144	28		12	26	left	11	25	32.5	14
6.4.2	Reversal_Task	1	2021-09-22	09:33:14	presentation_left	Experiment_block_rightstart	carriage.bmp	66	96	33	196	36	31	4	26	3	Reversal	4	26	0.8000000000000000444	0.2000000000000000111	CRIF	0	1	-1	39	145	28		13	26	left	11	25	32.5	14
6.4.2	Reversal_Task	1	2021-09-22	09:33:14	fixation	Experiment_block_rightstart	+	66	96	33	196	36	31	4	26	3	Reversal	4	26	0.8000000000000000444	0.2000000000000000111	CRIF	0	1	-1	39	145	28		13	26	left	12	25	32.5	14
6.4.2	Reversal_Task	1	2021-09-22	09:33:14	presentation_left	Experiment_block_rightstart	carriage.bmp	66	96	33	207	36	31	4	26	3	Reversal	4	26	0.8000000000000000444	0.2000000000000000111	CRCF	0	1	1	40	146	28		14	26	left	12	25	32.5	14
6.4.2	Reversal_Task	1	2021-09-22	09:33:14	fixation	Experiment_block_rightstart	+	66	96	33	207	36	31	4	26	3	Reversal	4	26	0.8000000000000000444	0.2000000000000000111	CRCF	0	1	1	40	146	29		14	26	left	13	25	32.5	14.5
6.4.2	Reversal_Task	1	2021-09-22	09:33:14	presentation_left	Experiment_block_rightstart	carriage.bmp	67	96	33	169	36	31	4	26	3	Reversal	4	26	0.8000000000000000444	0.2000000000000000111	CRCF	0	1	1	41	147	29		15	26	left	13	25	32.5	14.5
6.4.2	Reversal_Task	1	2021-09-22	09:33:14	fixation	Experiment_block_rightstart	+	67	96	33	169	36	31	4	26	3	Reversal	4	26	0.8000000000000000444	0.2000000000000000111	CRCF	0	1	1	41	147	30		15	26	left	14	25	32.5	15
6.4.2	Reversal_Task	1	2021-09-22	09:33:14	presentation_left	Experiment_block_rightstart	carriage.bmp	67	96	33	422	36	31	4	26	3	Reversal	4	26	0.8000000000000000444	0.2000000000000000111	CRCF	0	1	1	42	148	30		16	26	left	14	25	32.5	15
6.4.2	Reversal_Task	1	2021-09-22	09:33:14	fixation	Experiment_block_rightstart	+	67	96	33	422	36	31	4	26	3	Reversal	4	26	0.8000000000000000444	0.2000000000000000111	CRCF	0	1	1	42	148	31		16	26	left	15	25	32.5	15.5
6.4.2	Reversal_Task	1	2021-09-22	09:33:14	presentation_left	Experiment_block_rightstart	carriage.bmp	68	96	33	200	36	31	4	26	3	Reversal	4	26	0.8000000000000000444	0.2000000000000000111	CRCF	0	1	1	43	149	31		17	26	left	15	25	32.5	15.5
6.4.2	Reversal_Task	1	2021-09-22	09:33:14	fixation	Experiment_block_rightstart	+	68	96	33	200	36	31	4	26	3	Reversal	4	26	0.8000000000000000444	0.2000000000000000111	CRCF	0	1	1	43	149	32		17	26	left	16	25	32.5	16
6.4.2	Reversal_Task	1	2021-09-22	09:33:14	presentation_left	Experiment_block_rightstart	carriage.bmp	69	96	33	75	36	31	4	26	3	Reversal	4	26	0.8000000000000000444	0.2000000000000000111	CRCF	0	1	1	44	150	32		18	26	left	16	25	32.5	16
6.4.2	Reversal_Task	1	2021-09-22	09:33:14	fixation	Experiment_block_rightstart	+	69	96	33	75	36	31	4	26	3	Reversal	4	26	0.8000000000000000444	0.2000000000000000111	CRCF	0	1	1	44	150	33		18	26	left	17	25	32.5	16.5
6.4.2	Reversal_Task	1	2021-09-22	09:33:14	presentation_left	Experiment_block_rightstart	carriage.bmp	69	96	33	81	36	31	4	26	3	Reversal	4	26	0.8000000000000000444	0.2000000000000000111	CRCF	0	1	1	45	151	33		19	26	left	17	25	32.5	16.5
6.4.2	Reversal_Task	1	2021-09-22	09:33:14	fixation	Experiment_block_rightstart	+	69	96	33	81	36	31	4	26	3	Reversal	4	26	0.8000000000000000444	0.2000000000000000111	CRCF	0	1	1	45	151	34		19	26	left	18	25	32.5	17
6.4.2	Reversal_Task	1	2021-09-22	09:33:14	presentation_left	Experiment_block_rightstart	carriage.bmp	70	96	33	19	36	31	4	26	3	Reversal	4	26	0.8000000000000000444	0.2000000000000000111	CRCF	0	1	1	46	152	34		20	26	left	18	25	32.5	17
6.4.2	Reversal_Task	1	2021-09-22	09:33:14	fixation	Experiment_block_rightstart	+	70	96	33	19	36	31	4	26	3	Reversal	4	26	0.8000000000000000444	0.2000000000000000111	CRCF	0	1	1	46	152	35		20	26	left	19	25	32.5	17.5
6.4.2	Reversal_Task	1	2021-09-22	09:33:14	presentation_left	Experiment_block_rightstart	carriage.bmp	70	96	33	332	36	31	4	26	3	Reversal	4	26	0.8000000000000000444	0.2000000000000000111	CRCF	0	1	1	47	153	35		21	26	left	19	25	32.5	17.5
6.4.2	Reversal_Task	1	2021-09-22	09:33:14	fixation	Experiment_block_rightstart	+	70	96	33	332	36	31	4	26	3	Reversal	4	26	0.8000000000000000444	0.2000000000000000111	CRCF	0	1	1	47	153	36		21	26	left	20	25	32.5	18
6.4.2	Reversal_Task	1	2021-09-22	09:33:14	presentation_left	Experiment_block_rightstart	carriage.bmp	71	96	33	870	36	31	4	26	3	Reversal	4	26	0.8000000000000000444	0.2000000000000000111	CRIF	0	1	-1	48	154	36		22	26	left	20	25	32.5	18
6.4.2	Reversal_Task	1	2021-09-22	09:33:14	fixation	Experiment_block_rightstart	+	71	96	33	870	36	31	4	26	3	Reversal	4	26	0.8000000000000000444	0.2000000000000000111	CRIF	0	1	-1	48	154	36		22	26	left	21	25	32.5	18
6.4.2	Reversal_Task	1	2021-09-22	09:33:14	presentation_left	Experiment_block_rightstart	carriage.bmp	71	96	33	73	36	31	4	26	3	Reversal	4	26	0.8000000000000000444	0.2000000000000000111	CRCF	0	1	1	49	155	36		23	26	left	21	25	32.5	18
6.4.2	Reversal_Task	1	2021-09-22	09:33:14	fixation	Experiment_block_rightstart	+	71	96	33	73	36	31	4	26	3	Reversal	4	26	0.8000000000000000444	0.2000000000000000111	CRCF	0	1	1	49	155	37		23	26	left	22	25	32.5	18.5
6.4.2	Reversal_Task	1	2021-09-22	09:33:14	presentation_left	Experiment_block_rightstart	carriage.bmp	72	96	33	201	36	31	4	26	3	Reversal	4	26	0.8000000000000000444	0.2000000000000000111	CRCF	0	1	1	50	156	37		24	26	left	22	25	32.5	18.5
6.4.2	Reversal_Task	1	2021-09-22	09:33:14	fixation	Experiment_block_rightstart	+	72	96	33	201	36	31	4	26	4	Reversal	4	26	0.8000000000000000444	0.2000000000000000111	CRCF	0	1	1	50	156	38		24	26	left	23	25	32.5	19
6.4.2	Reversal_Task	1	2021-09-22	09:33:14	reset_trial	Experiment_block_rightstart	Press SPACE to continue	72	96	33	201	36	31	4	26	4	Reversal	4	26	0.8000000000000000444	0.2000000000000000111	CRCF	0	1	1	50	156	38		0	0	left	23	21	32.5	19
6.4.2	Reversal_Task	1	2021-09-22	09:33:14	presentation_left	Experiment_block_leftstart	wrench.bmp	100	96	33	105	36	31	12	8	4	Acquisiton	12	8	0.8000000000000000444	0.2000000000000000111	CRCF	0	1	1	1	157	0		1	0	left	23	21	51.5	0
6.4.2	Reversal_Task	1	2021-09-22	09:33:14	fixation	Experiment_block_leftstart	+	100	96	33	105	36	31	12	8	4	Acquisiton	12	8	0.8000000000000000444	0.2000000000000000111	CRCF	0	1	1	1	157	1		1	0	left	24	21	51.5	0.5
6.4.2	Reversal_Task	1	2021-09-22	09:33:14	presentation_left	Experiment_block_leftstart	wrench.bmp	100	96	33	519	36	31	12	8	4	Acquisiton	12	8	0.8000000000000000444	0.2000000000000000111	CRIF	0	1	-1	2	158	1		2	0	left	24	21	51.5	0.5
6.4.2	Reversal_Task	1	2021-09-22	09:33:14	fixation	Experiment_block_leftstart	+	100	96	33	519	36	31	12	8	4	Acquisiton	12	8	0.8000000000000000444	0.2000000000000000111	CRIF	0	1	-1	2	158	1		2	0	left	25	21	51.5	0.5
6.4.2	Reversal_Task	1	2021-09-22	09:33:14	presentation_left	Experiment_block_leftstart	wrench.bmp	66	96	0	2000	36	31	12	8	4	Acquisiton	12	8	0.8000000000000000444	0.2000000000000000111	NRNF	0	0	1	3	159	1		2	0	left	25	21	51.5	0.5
6.4.2	Reversal_Task	1	2021-09-22	09:33:14	fixation	Experiment_block_leftstart	+	66	96	0	2000	36	31	12	8	4	Acquisiton	12	8	0.8000000000000000444	0.2000000000000000111	NRNF	0	0	1	3	159	1		2	0	left	0	21	51.5	0.5
6.4.2	Reversal_Task	1	2021-09-22	09:33:14	presentation_left	Experiment_block_leftstart	wrench.bmp	50	96	0	2000	36	31	12	8	4	Acquisiton	12	8	0.8000000000000000444	0.2000000000000000111	NRNF	0	0	1	4	160	1		2	0	left	0	21	51.5	0.5
6.4.2	Reversal_Task	1	2021-09-22	09:33:14	fixation	Experiment_block_leftstart	+	50	96	0	2000	36	31	12	8	4	Acquisiton	12	8	0.8000000000000000444	0.2000000000000000111	NRNF	0	0	1	4	160	1		2	0	left	0	21	51.5	0.5
6.4.2	Reversal_Task	1	2021-09-22	09:33:14	presentation_left	Experiment_block_leftstart	wrench.bmp	60	96	33	1042	36	31	12	8	4	Acquisiton	12	8	0.8000000000000000444	0.2000000000000000111	CRCF	0	1	1	5	161	1		3	0	left	0	21	51.5	0.5
6.4.2	Reversal_Task	1	2021-09-22	09:33:14	fixation	Experiment_block_leftstart	+	60	96	33	1042	36	31	12	8	4	Acquisiton	12	8	0.8000000000000000444	0.2000000000000000111	CRCF	0	1	1	5	161	2		3	0	left	1	21	51.5	1
6.4.2	Reversal_Task	1	2021-09-22	09:33:14	presentation_left	Experiment_block_leftstart	wrench.bmp	66	96	33	91	36	31	12	8	4	Acquisiton	12	8	0.8000000000000000444	0.2000000000000000111	CRCF	0	1	1	6	162	2		4	0	left	1	21	51.5	1
6.4.2	Reversal_Task	1	2021-09-22	09:33:14	fixation	Experiment_block_leftstart	+	66	96	33	91	36	31	12	8	4	Acquisiton	12	8	0.8000000000000000444	0.2000000000000000111	CRCF	0	1	1	6	162	3		4	0	left	2	21	51.5	1.5
6.4.2	Reversal_Task	1	2021-09-22	09:33:14	presentation_left	Experiment_block_leftstart	wrench.bmp	71	96	33	154	36	31	12	8	4	Acquisiton	12	8	0.8000000000000000444	0.2000000000000000111	CRCF	0	1	1	7	163	3		5	0	left	2	21	51.5	1.5
6.4.2	Reversal_Task	1	2021-09-22	09:33:14	fixation	Experiment_block_leftstart	+	71	96	33	154	36	31	12	8	4	Acquisiton	12	8	0.8000000000000000444	0.2000000000000000111	CRCF	0	1	1	7	163	4		5	0	left	3	21	51.5	2
6.4.2	Reversal_Task	1	2021-09-22	09:33:14	presentation_left	Experiment_block_leftstart	wrench.bmp	75	96	33	24	36	31	12	8	4	Acquisiton	12	8	0.8000000000000000444	0.2000000000000000111	CRCF	0	1	1	8	164	4		6	0	left	3	21	51.5	2
6.4.2	Reversal_Task	1	2021-09-22	09:33:14	fixation	Experiment_block_leftstart	+	75	96	33	24	36	31	12	8	4	Acquisiton	12	8	0.8000000000000000444	0.2000000000000000111	CRCF	0	1	1	8	164	5		6	0	left	4	21	51.5	2.5
6.4.2	Reversal_Task	1	2021-09-22	09:33:14	presentation_left	Experiment_block_leftstart	wrench.bmp	77	96	33	353	36	31	12	8	4	Acquisiton	12	8	0.8000000000000000444	0.2000000000000000111	CRCF	0	1	1	9	165	5		7	0	left	4	21	51.5	2.5
6.4.2	Reversal_Task	1	2021-09-22	09:33:14	fixation	Experiment_block_leftstart	+	77	96	33	353	36	31	12	8	4	Acquisiton	12	8	0.8000000000000000444	0.2000000000000000111	CRCF	0	1	1	9	165	6		7	0	left	5	21	51.5	3
6.4.2	Reversal_Task	1	2021-09-22	09:33:14	presentation_left	Experiment_block_leftstart	wrench.bmp	80	96	33	102	36	31	12	8	4	Acquisiton	12	8	0.8000000000000000444	0.2000000000000000111	CRCF	0	1	1	10	166	6		8	0	left	5	21	51.5	3
6.4.2	Reversal_Task	1	2021-09-22	09:33:14	fixation	Experiment_block_leftstart	+	80	96	33	102	36	31	12	8	4	Acquisiton	12	8	0.8000000000000000444	0.2000000000000000111	CRCF	0	1	1	10	166	7		8	0	left	6	21	51.5	3.5
6.4.2	Reversal_Task	1	2021-09-22	09:33:14	presentation_left	Experiment_block_leftstart	wrench.bmp	81	96	33	181	36	31	12	8	4	Acquisiton	12	8	0.8000000000000000444	0.2000000000000000111	CRIF	0	1	-1	11	167	7		9	0	left	6	21	51.5	3.5
6.4.2	Reversal_Task	1	2021-09-22	09:33:14	fixation	Experiment_block_leftstart	+	81	96	33	181	36	31	12	8	4	Acquisiton	12	8	0.8000000000000000444	0.2000000000000000111	CRIF	0	1	-1	11	167	7		9	0	left	7	21	51.5	3.5
6.4.2	Reversal_Task	1	2021-09-22	09:33:14	presentation_left	Experiment_block_leftstart	wrench.bmp	83	96	33	184	36	31	12	8	4	Acquisiton	12	8	0.8000000000000000444	0.2000000000000000111	CRIF	0	1	-1	12	168	7		10	0	left	7	21	51.5	3.5
6.4.2	Reversal_Task	1	2021-09-22	09:33:14	fixation	Experiment_block_leftstart	+	83	96	33	184	36	31	12	8	4	Acquisiton	12	8	0.8000000000000000444	0.2000000000000000111	CRIF	0	1	-1	12	168	7		10	0	left	8	21	51.5	3.5
6.4.2	Reversal_Task	1	2021-09-22	09:33:14	presentation_left	Experiment_block_leftstart	wrench.bmp	84	96	33	132	36	31	12	8	4	Acquisiton	12	8	0.8000000000000000444	0.2000000000000000111	CRCF	0	1	1	13	169	7		11	0	left	8	21	51.5	3.5
6.4.2	Reversal_Task	1	2021-09-22	09:33:14	fixation	Experiment_block_leftstart	+	84	96	33	132	36	31	12	8	4	Acquisiton	12	8	0.8000000000000000444	0.2000000000000000111	CRCF	0	1	1	13	169	8		11	0	left	9	21	51.5	4
6.4.2	Reversal_Task	1	2021-09-22	09:33:14	presentation_left	Experiment_block_leftstart	wrench.bmp	85	96	33	274	36	31	12	8	4	Acquisiton	12	8	0.8000000000000000444	0.2000000000000000111	CRCF	0	1	1	14	170	8		12	0	left	9	21	51.5	4
6.4.2	Reversal_Task	1	2021-09-22	09:33:14	fixation	Experiment_block_leftstart	+	85	96	33	274	36	31	12	8	4	Acquisiton	12	8	0.8000000000000000444	0.2000000000000000111	CRCF	0	1	1	14	170	9		12	0	left	10	21	51.5	4.5
6.4.2	Reversal_Task	1	2021-09-22	09:33:14	presentation_left	Experiment_block_leftstart	wrench.bmp	86	96	33	328	36	31	12	8	4	Acquisiton	12	8	0.8000000000000000444	0.2000000000000000111	CRCF	0	1	1	15	171	9		13	0	left	10	21	51.5	4.5
6.4.2	Reversal_Task	1	2021-09-22	09:33:14	fixation	Experiment_block_leftstart	+	86	96	33	328	36	31	12	8	4	Acquisiton	12	8	0.8000000000000000444	0.2000000000000000111	CRCF	0	1	1	15	171	10		13	0	left	11	21	51.5	5
6.4.2	Reversal_Task	1	2021-09-22	09:33:14	presentation_left	Experiment_block_leftstart	wrench.bmp	87	96	33	161	36	31	12	8	4	Acquisiton	12	8	0.8000000000000000444	0.2000000000000000111	CRCF	0	1	1	16	172	10		14	0	left	11	21	51.5	5
6.4.2	Reversal_Task	1	2021-09-22	09:33:14	fixation	Experiment_block_leftstart	+	87	96	33	161	36	31	12	8	4	Acquisiton	12	8	0.8000000000000000444	0.2000000000000000111	CRCF	0	1	1	16	172	11		14	0	left	12	21	51.5	5.5
6.4.2	Reversal_Task	1	2021-09-22	09:33:14	presentation_left	Experiment_block_leftstart	wrench.bmp	88	96	33	139	36	31	12	8	4	Acquisiton	12	8	0.8000000000000000444	0.2000000000000000111	CRCF	0	1	1	17	173	11		15	0	left	12	21	51.5	5.5
6.4.2	Reversal_Task	1	2021-09-22	09:33:14	fixation	Experiment_block_leftstart	+	88	96	33	139	36	31	12	8	4	Acquisiton	12	8	0.8000000000000000444	0.2000000000000000111	CRCF	0	1	1	17	173	12		15	0	left	13	21	51.5	6
6.4.2	Reversal_Task	1	2021-09-22	09:33:14	presentation_left	Experiment_block_leftstart	wrench.bmp	88	96	33	96	36	31	12	8	4	Acquisiton	12	8	0.8000000000000000444	0.2000000000000000111	CRIF	0	1	-1	18	174	12		16	0	left	13	21	51.5	6
6.4.2	Reversal_Task	1	2021-09-22	09:33:14	fixation	Experiment_block_leftstart	+	88	96	33	96	36	31	12	8	4	Acquisiton	12	8	0.8000000000000000444	0.2000000000000000111	CRIF	0	1	-1	18	174	12		16	0	left	14	21	51.5	6
6.4.2	Reversal_Task	1	2021-09-22	09:33:14	presentation_left	Experiment_block_leftstart	wrench.bmp	89	96	33	56	36	31	12	8	4	Acquisiton	12	8	0.8000000000000000444	0.2000000000000000111	CRCF	0	1	1	19	175	12		17	0	left	14	21	51.5	6
6.4.2	Reversal_Task	1	2021-09-22	09:33:14	fixation	Experiment_block_leftstart	+	89	96	33	56	36	31	12	8	4	Acquisiton	12	8	0.8000000000000000444	0.2000000000000000111	CRCF	0	1	1	19	175	13		17	0	left	15	21	51.5	6.5
6.4.2	Reversal_Task	1	2021-09-22	09:33:14	presentation_left	Experiment_block_leftstart	wrench.bmp	90	96	33	24	36	31	12	8	4	Acquisiton	12	8	0.8000000000000000444	0.2000000000000000111	CRCF	0	1	1	20	176	13		18	0	left	15	21	51.5	6.5
6.4.2	Reversal_Task	1	2021-09-22	09:33:14	fixation	Experiment_block_leftstart	+	90	96	33	24	36	31	12	8	4	Acquisiton	12	8	0.8000000000000000444	0.2000000000000000111	CRCF	0	1	1	20	176	14		18	0	left	16	21	51.5	7
6.4.2	Reversal_Task	1	2021-09-22	09:33:14	presentation_left	Experiment_block_leftstart	wrench.bmp	90	96	33	18	36	31	12	8	4	Acquisiton	12	8	0.8000000000000000444	0.2000000000000000111	CRCF	0	1	1	21	177	14		19	0	left	16	21	51.5	7
6.4.2	Reversal_Task	1	2021-09-22	09:33:14	fixation	Experiment_block_leftstart	+	90	96	33	18	36	31	12	8	4	Acquisiton	12	8	0.8000000000000000444	0.2000000000000000111	CRCF	0	1	1	21	177	15		19	0	left	17	21	51.5	7.5
6.4.2	Reversal_Task	1	2021-09-22	09:33:14	presentation_right	Experiment_block_leftstart	wrench.bmp	90	0	33	18	33	484	12	8	4	Reversal	12	8	0.2000000000000000111	0.8000000000000000444	IRIF	0	-1	1	22	178	15		20	0	right	17	21	51.5	7.5
6.4.2	Reversal_Task	1	2021-09-22	09:33:14	fixation	Experiment_block_leftstart	+	90	0	33	18	33	484	12	8	4	Reversal	12	8	0.2000000000000000111	0.8000000000000000444	IRIF	0	-1	1	22	178	15		20	0	right	0	21	51.5	7.5
6.4.2	Reversal_Task	1	2021-09-22	09:33:14	presentation_right	Experiment_block_leftstart	wrench.bmp	90	0	33	18	33	244	12	8	4	Reversal	12	8	0.2000000000000000111	0.8000000000000000444	IRIF	0	-1	1	23	179	15		21	0	right	0	21	51.5	7.5
6.4.2	Reversal_Task	1	2021-09-22	09:33:14	fixation	Experiment_block_leftstart	+	90	0	33	18	33	244	12	8	4	Reversal	12	8	0.2000000000000000111	0.8000000000000000444	IRIF	0	-1	1	23	179	15		21	0	right	0	21	51.5	7.5
6.4.2	Reversal_Task	1	2021-09-22	09:33:14	presentation_right	Experiment_block_leftstart	wrench.bmp	90	33	33	18	36	660	12	8	4	Reversal	12	8	0.2000000000000000111	0.8000000000000000444	CRCF	0	1	1	24	180	15		21	1	right	0	21	51.5	7.5
6.4.2	Reversal_Task	1	2021-09-22	09:33:14	fixation	Experiment_block_leftstart	+	90	33	33	18	36	660	12	8	4	Reversal	12	8	0.2000000000000000111	0.8000000000000000444	CRCF	0	1	1	24	180	16		21	1	right	1	21	51.5	8
6.4.2	Reversal_Task	1	2021-09-22	09:33:14	presentation_right	Experiment_block_leftstart	wrench.bmp	90	50	33	18	36	197	12	8	4	Reversal	12	8	0.2000000000000000111	0.8000000000000000444	CRCF	0	1	1	25	181	16		21	2	right	1	21	51.5	8
6.4.2	Reversal_Task	1	2021-09-22	09:33:14	fixation	Experiment_block_leftstart	+	90	50	33	18	36	197	12	8	4	Reversal	12	8	0.2000000000000000111	0.8000000000000000444	CRCF	0	1	1	25	181	17		21	2	right	2	21	51.5	8.5
6.4.2	Reversal_Task	1	2021-09-22	09:33:14	presentation_right	Experiment_block_leftstart	wrench.bmp	90	60	33	18	36	200	12	8	4	Reversal	12	8	0.2000000000000000111	0.8000000000000000444	CRCF	0	1	1	26	182	17		21	3	right	2	21	51.5	8.5
6.4.2	Reversal_Task	1	2021-09-22	09:33:14	fixation	Experiment_block_leftstart	+	90	60	33	18	36	200	12	8	4	Reversal	12	8	0.2000000000000000111	0.8000000000000000444	CRCF	0	1	1	26	182	18		21	3	right	3	21	51.5	9
6.4.2	Reversal_Task	1	2021-09-22	09:33:14	presentation_right	Experiment_block_leftstart	wrench.bmp	90	66	33	18	36	131	12	8	4	Reversal	12	8	0.2000000000000000111	0.8000000000000000444	CRCF	0	1	1	27	183	18		21	4	right	3	21	51.5	9
6.4.2	Reversal_Task	1	2021-09-22	09:33:14	fixation	Experiment_block_leftstart	+	90	66	33	18	36	131	12	8	4	Reversal	12	8	0.2000000000000000111	0.8000000000000000444	CRCF	0	1	1	27	183	19		21	4	right	4	21	51.5	9.5
6.4.2	Reversal_Task	1	2021-09-22	09:33:14	presentation_right	Experiment_block_leftstart	wrench.bmp	90	71	33	18	36	40	12	8	4	Reversal	12	8	0.2000000000000000111	0.8000000000000000444	CRCF	0	1	1	28	184	19		21	5	right	4	21	51.5	9.5
6.4.2	Reversal_Task	1	2021-09-22	09:33:14	fixation	Experiment_block_leftstart	+	90	71	33	18	36	40	12	8	4	Reversal	12	8	0.2000000000000000111	0.8000000000000000444	CRCF	0	1	1	28	184	20		21	5	right	5	21	51.5	10
6.4.2	Reversal_Task	1	2021-09-22	09:33:14	presentation_right	Experiment_block_leftstart	wrench.bmp	90	75	33	18	36	82	12	8	4	Reversal	12	8	0.2000000000000000111	0.8000000000000000444	CRCF	0	1	1	29	185	20		21	6	right	5	21	51.5	10
6.4.2	Reversal_Task	1	2021-09-22	09:33:14	fixation	Experiment_block_leftstart	+	90	75	33	18	36	82	12	8	4	Reversal	12	8	0.2000000000000000111	0.8000000000000000444	CRCF	0	1	1	29	185	21		21	6	right	6	21	51.5	10.5
6.4.2	Reversal_Task	1	2021-09-22	09:33:14	presentation_right	Experiment_block_leftstart	wrench.bmp	90	77	33	18	36	146	12	8	4	Reversal	12	8	0.2000000000000000111	0.8000000000000000444	CRCF	0	1	1	30	186	21		21	7	right	6	21	51.5	10.5
6.4.2	Reversal_Task	1	2021-09-22	09:33:14	fixation	Experiment_block_leftstart	+	90	77	33	18	36	146	12	8	4	Reversal	12	8	0.2000000000000000111	0.8000000000000000444	CRCF	0	1	1	30	186	22		21	7	right	7	21	51.5	11
6.4.2	Reversal_Task	1	2021-09-22	09:33:14	presentation_right	Experiment_block_leftstart	wrench.bmp	90	80	33	18	36	111	12	8	4	Reversal	12	8	0.2000000000000000111	0.8000000000000000444	CRCF	0	1	1	31	187	22		21	8	right	7	21	51.5	11
6.4.2	Reversal_Task	1	2021-09-22	09:33:14	fixation	Experiment_block_leftstart	+	90	80	33	18	36	111	12	8	4	Reversal	12	8	0.2000000000000000111	0.8000000000000000444	CRCF	0	1	1	31	187	23		21	8	right	8	21	51.5	11.5
6.4.2	Reversal_Task	1	2021-09-22	09:33:14	presentation_right	Experiment_block_leftstart	wrench.bmp	90	81	33	18	36	381	12	8	4	Reversal	12	8	0.2000000000000000111	0.8000000000000000444	CRCF	0	1	1	32	188	23		21	9	right	8	21	51.5	11.5
6.4.2	Reversal_Task	1	2021-09-22	09:33:14	fixation	Experiment_block_leftstart	+	90	81	33	18	36	381	12	8	4	Reversal	12	8	0.2000000000000000111	0.8000000000000000444	CRCF	0	1	1	32	188	24		21	9	right	9	21	51.5	12
6.4.2	Reversal_Task	1	2021-09-22	09:33:14	presentation_right	Experiment_block_leftstart	wrench.bmp	90	83	33	18	36	81	12	8	4	Reversal	12	8	0.2000000000000000111	0.8000000000000000444	CRIF	0	1	-1	33	189	24		21	10	right	9	21	51.5	12
6.4.2	Reversal_Task	1	2021-09-22	09:33:14	fixation	Experiment_block_leftstart	+	90	83	33	18	36	81	12	8	4	Reversal	12	8	0.2000000000000000111	0.8000000000000000444	CRIF	0	1	-1	33	189	24		21	10	right	10	21	51.5	12
6.4.2	Reversal_Task	1	2021-09-22	09:33:14	presentation_right	Experiment_block_leftstart	wrench.bmp	90	84	33	18	36	88	12	8	4	Reversal	12	8	0.2000000000000000111	0.8000000000000000444	CRCF	0	1	1	34	190	24		21	11	right	10	21	51.5	12
6.4.2	Reversal_Task	1	2021-09-22	09:33:14	fixation	Experiment_block_leftstart	+	90	84	33	18	36	88	12	8	4	Reversal	12	8	0.2000000000000000111	0.8000000000000000444	CRCF	0	1	1	34	190	25		21	11	right	11	21	51.5	12.5
6.4.2	Reversal_Task	1	2021-09-22	09:33:14	presentation_right	Experiment_block_leftstart	wrench.bmp	90	85	33	18	36	88	12	8	4	Reversal	12	8	0.2000000000000000111	0.8000000000000000444	CRCF	0	1	1	35	191	25		21	12	right	11	21	51.5	12.5
6.4.2	Reversal_Task	1	2021-09-22	09:33:14	fixation	Experiment_block_leftstart	+	90	85	33	18	36	88	12	8	4	Reversal	12	8	0.2000000000000000111	0.8000000000000000444	CRCF	0	1	1	35	191	26		21	12	right	12	21	51.5	13
6.4.2	Reversal_Task	1	2021-09-22	09:33:14	presentation_right	Experiment_block_leftstart	wrench.bmp	90	86	33	18	36	63	12	8	4	Reversal	12	8	0.2000000000000000111	0.8000000000000000444	CRCF	0	1	1	36	192	26		21	13	right	12	21	51.5	13
6.4.2	Reversal_Task	1	2021-09-22	09:33:14	fixation	Experiment_block_leftstart	+	90	86	33	18	36	63	12	8	4	Reversal	12	8	0.2000000000000000111	0.8000000000000000444	CRCF	0	1	1	36	192	27		21	13	right	13	21	51.5	13.5
6.4.2	Reversal_Task	1	2021-09-22	09:33:14	presentation_right	Experiment_block_leftstart	wrench.bmp	90	87	33	18	36	72	12	8	4	Reversal	12	8	0.2000000000000000111	0.8000000000000000444	CRCF	0	1	1	37	193	27		21	14	right	13	21	51.5	13.5
6.4.2	Reversal_Task	1	2021-09-22	09:33:14	fixation	Experiment_block_leftstart	+	90	87	33	18	36	72	12	8	4	Reversal	12	8	0.2000000000000000111	0.8000000000000000444	CRCF	0	1	1	37	193	28		21	14	right	14	21	51.5	14
6.4.2	Reversal_Task	1	2021-09-22	09:33:14	presentation_right	Experiment_block_leftstart	wrench.bmp	90	88	33	18	36	177	12	8	4	Reversal	12	8	0.2000000000000000111	0.8000000000000000444	CRCF	0	1	1	38	194	28		21	15	right	14	21	51.5	14
6.4.2	Reversal_Task	1	2021-09-22	09:33:14	fixation	Experiment_block_leftstart	+	90	88	33	18	36	177	12	8	4	Reversal	12	8	0.2000000000000000111	0.8000000000000000444	CRCF	0	1	1	38	194	29		21	15	right	15	21	51.5	14.5
6.4.2	Reversal_Task	1	2021-09-22	09:33:14	presentation_right	Experiment_block_leftstart	wrench.bmp	90	88	33	18	36	140	12	8	4	Reversal	12	8	0.2000000000000000111	0.8000000000000000444	CRIF	0	1	-1	39	195	29		21	16	right	15	21	51.5	14.5
6.4.2	Reversal_Task	1	2021-09-22	09:33:14	fixation	Experiment_block_leftstart	+	90	88	33	18	36	140	12	8	4	Reversal	12	8	0.2000000000000000111	0.8000000000000000444	CRIF	0	1	-1	39	195	29		21	16	right	16	21	51.5	14.5
6.4.2	Reversal_Task	1	2021-09-22	09:33:14	presentation_right	Experiment_block_leftstart	wrench.bmp	90	89	33	18	36	8	12	8	4	Reversal	12	8	0.2000000000000000111	0.8000000000000000444	CRIF	0	1	-1	40	196	29		21	17	right	16	21	51.5	14.5
6.4.2	Reversal_Task	1	2021-09-22	09:33:14	fixation	Experiment_block_leftstart	+	90	89	33	18	36	8	12	8	4	Reversal	12	8	0.2000000000000000111	0.8000000000000000444	CRIF	0	1	-1	40	196	29		21	17	right	17	21	51.5	14.5
6.4.2	Reversal_Task	1	2021-09-22	09:33:14	presentation_right	Experiment_block_leftstart	wrench.bmp	90	90	33	18	36	59	12	8	4	Reversal	12	8	0.2000000000000000111	0.8000000000000000444	CRCF	0	1	1	41	197	29		21	18	right	17	21	51.5	14.5
6.4.2	Reversal_Task	1	2021-09-22	09:33:14	fixation	Experiment_block_leftstart	+	90	90	33	18	36	59	12	8	4	Reversal	12	8	0.2000000000000000111	0.8000000000000000444	CRCF	0	1	1	41	197	30		21	18	right	18	21	51.5	15
6.4.2	Reversal_Task	1	2021-09-22	09:33:14	presentation_right	Experiment_block_leftstart	wrench.bmp	90	90	33	18	36	364	12	8	4	Reversal	12	8	0.2000000000000000111	0.8000000000000000444	CRCF	0	1	1	42	198	30		21	19	right	18	21	51.5	15
6.4.2	Reversal_Task	1	2021-09-22	09:33:14	fixation	Experiment_block_leftstart	+	90	90	33	18	36	364	12	8	4	Reversal	12	8	0.2000000000000000111	0.8000000000000000444	CRCF	0	1	1	42	198	31		21	19	right	19	21	51.5	15.5
6.4.2	Reversal_Task	1	2021-09-22	09:33:14	presentation_right	Experiment_block_leftstart	wrench.bmp	90	90	33	18	36	424	12	8	4	Reversal	12	8	0.2000000000000000111	0.8000000000000000444	CRCF	0	1	1	43	199	31		21	20	right	19	21	51.5	15.5
6.4.2	Reversal_Task	1	2021-09-22	09:33:14	fixation	Experiment_block_leftstart	+	90	90	33	18	36	424	12	8	4	Reversal	12	8	0.2000000000000000111	0.8000000000000000444	CRCF	0	1	1	43	199	32		21	20	right	20	21	51.5	16
6.4.2	Reversal_Task	1	2021-09-22	09:33:14	presentation_right	Experiment_block_leftstart	wrench.bmp	90	91	33	18	36	370	12	8	4	Reversal	12	8	0.2000000000000000111	0.8000000000000000444	CRCF	0	1	1	44	200	32		21	21	right	20	21	51.5	16
6.4.2	Reversal_Task	1	2021-09-22	09:33:14	fixation	Experiment_block_leftstart	+	90	91	33	18	36	370	12	8	4	Reversal	12	8	0.2000000000000000111	0.8000000000000000444	CRCF	0	1	1	44	200	33		21	21	right	21	21	51.5	16.5
6.4.2	Reversal_Task	1	2021-09-22	09:33:14	presentation_right	Experiment_block_leftstart	wrench.bmp	90	91	33	18	36	38	12	8	4	Reversal	12	8	0.2000000000000000111	0.8000000000000000444	CRCF	0	1	1	45	201	33		21	22	right	21	21	51.5	16.5
6.4.2	Reversal_Task	1	2021-09-22	09:33:14	fixation	Experiment_block_leftstart	+	90	91	33	18	36	38	12	8	4	Reversal	12	8	0.2000000000000000111	0.8000000000000000444	CRCF	0	1	1	45	201	34		21	22	right	22	21	51.5	17
6.4.2	Reversal_Task	1	2021-09-22	09:33:14	presentation_right	Experiment_block_leftstart	wrench.bmp	90	92	33	18	36	607	12	8	4	Reversal	12	8	0.2000000000000000111	0.8000000000000000444	CRCF	0	1	1	46	202	34		21	23	right	22	21	51.5	17
6.4.2	Reversal_Task	1	2021-09-22	09:33:14	fixation	Experiment_block_leftstart	+	90	92	33	18	36	607	12	8	4	Reversal	12	8	0.2000000000000000111	0.8000000000000000444	CRCF	0	1	1	46	202	35		21	23	right	23	21	51.5	17.5
6.4.2	Reversal_Task	1	2021-09-22	09:33:14	presentation_right	Experiment_block_leftstart	wrench.bmp	90	92	33	18	36	88	12	8	4	Reversal	12	8	0.2000000000000000111	0.8000000000000000444	CRIF	0	1	-1	47	203	35		21	24	right	23	21	51.5	17.5
6.4.2	Reversal_Task	1	2021-09-22	09:33:14	fixation	Experiment_block_leftstart	+	90	92	33	18	36	88	12	8	4	Reversal	12	8	0.2000000000000000111	0.8000000000000000444	CRIF	0	1	-1	47	203	35		21	24	right	24	21	51.5	17.5
6.4.2	Reversal_Task	1	2021-09-22	09:33:14	presentation_right	Experiment_block_leftstart	wrench.bmp	90	92	33	18	36	97	12	8	4	Reversal	12	8	0.2000000000000000111	0.8000000000000000444	CRIF	0	1	-1	48	204	35		21	25	right	24	21	51.5	17.5
6.4.2	Reversal_Task	1	2021-09-22	09:33:14	fixation	Experiment_block_leftstart	+	90	92	33	18	36	97	12	8	4	Reversal	12	8	0.2000000000000000111	0.8000000000000000444	CRIF	0	1	-1	48	204	35		21	25	right	25	21	51.5	17.5
6.4.2	Reversal_Task	1	2021-09-22	09:33:14	presentation_right	Experiment_block_leftstart	wrench.bmp	90	89	33	18	0	2000	12	8	4	Reversal	12	8	0.2000000000000000111	0.8000000000000000444	NRNF	0	0	1	49	205	35		21	25	right	25	21	51.5	17.5
6.4.2	Reversal_Task	1	2021-09-22	09:33:14	fixation	Experiment_block_leftstart	+	90	89	33	18	0	2000	12	8	4	Reversal	12	8	0.2000000000000000111	0.8000000000000000444	NRNF	0	0	1	49	205	35		21	25	right	0	21	51.5	17.5
6.4.2	Reversal_Task	1	2021-09-22	09:33:14	presentation_right	Experiment_block_leftstart	wrench.bmp	90	86	33	18	0	2000	12	8	4	Reversal	12	8	0.2000000000000000111	0.8000000000000000444	NRNF	0	0	1	50	206	35		21	25	right	0	21	51.5	17.5
6.4.2	Reversal_Task	1	2021-09-22	09:33:14	fixation	Experiment_block_leftstart	+	90	86	33	18	0	2000	12	8	5	Reversal	12	8	0.2000000000000000111	0.8000000000000000444	NRNF	0	0	1	50	206	35		21	25	right	0	21	51.5	17.5
6.4.2	Reversal_Task	1	2021-09-22	09:33:14	reset_trial	Experiment_block_leftstart	Press SPACE to continue	90	86	33	18	0	2000	12	8	5	Reversal	12	8	0.2000000000000000111	0.8000000000000000444	NRNF	0	0	1	50	206	35		0	0	right	0	30	51.5	17.5