"build","experimentName","subject","date","time","trialcode","blockcode","stimulusitem1","trial.choice.percentcorrect","trial.choice.latency","trial.choice.response","picture.correctStim.currentvalue","picture.incorrectStim.currentvalue","block_number","task_phase","index_correctChoice","index_incorrectChoice","correctChoicePosition","correctKey","incorrectKey","percentTrialsCorrectFeedback_correctStim","percentTrialsCorrectFeedback_incorrectStim","responseAndFeedbackCategory","isThisTrialPractice","isResponseCorrect","isFeedbackAccurate","trial_number","total_trialnum","numbercorrectfeedback","totalcorrect","rightleftcorrect","consecutivecorrect","reversalnumber","totalearnings","centsearned"
"6.5.0","Reversal_Task","1","2021-09-27","14:39:07","choice","Experiment_block_start","orange.bmp","100","1214","36","15","26","1","Acquisiton","15","26","1","33","36","0.6999999999999999556","0.2999999999999999889","IRIF","0","-1","1","1","1","0","12","left","0","21","6","0"
"6.5.0","Reversal_Task","1","2021-09-27","14:39:07","fixation","Experiment_block_start","+","100","1214","36","15","26","1","Acquisiton","15","26","1","33","36","0.6999999999999999556","0.2999999999999999889","IRIF","0","-1","1","1","1","0","12","left","0","21","6","0"
"6.5.0","Reversal_Task","1","2021-09-27","14:39:07","choice","Experiment_block_start","orange.bmp","100","658","33","15","26","1","Acquisiton","15","26","1","33","36","0.6999999999999999556","0.2999999999999999889","CRCF","0","1","1","2","2","0","12","left","0","21","6","0"
"6.5.0","Reversal_Task","1","2021-09-27","14:39:07","fixation","Experiment_block_start","+","100","658","33","15","26","1","Acquisiton","15","26","1","33","36","0.6999999999999999556","0.2999999999999999889","CRCF","0","1","1","2","2","1","12","left","1","21","6","0.5"
"6.5.0","Reversal_Task","1","2021-09-27","14:39:07","choice","Experiment_block_start","orange.bmp","100","469","36","15","26","1","Acquisiton","15","26","2","36","33","0.6999999999999999556","0.2999999999999999889","CRCF","0","1","1","3","3","1","12","left","1","21","6","0.5"
"6.5.0","Reversal_Task","1","2021-09-27","14:39:07","fixation","Experiment_block_start","+","100","469","36","15","26","1","Acquisiton","15","26","2","36","33","0.6999999999999999556","0.2999999999999999889","CRCF","0","1","1","3","3","2","12","left","2","21","6","1"
"6.5.0","Reversal_Task","1","2021-09-27","14:39:07","choice","Experiment_block_start","orange.bmp","100","348","33","15","26","1","Acquisiton","15","26","1","33","36","0.6999999999999999556","0.2999999999999999889","CRCF","0","1","1","4","4","2","12","left","2","21","6","1"
"6.5.0","Reversal_Task","1","2021-09-27","14:39:07","fixation","Experiment_block_start","+","100","348","33","15","26","1","Acquisiton","15","26","1","33","36","0.6999999999999999556","0.2999999999999999889","CRCF","0","1","1","4","4","3","12","left","3","21","6","1.5"
"6.5.0","Reversal_Task","1","2021-09-27","14:39:07","choice","Experiment_block_start","orange.bmp","100","385","33","15","26","1","Acquisiton","15","26","1","33","36","0.6999999999999999556","0.2999999999999999889","CRIF","0","1","-1","5","5","3","12","left","3","21","6","1.5"
"6.5.0","Reversal_Task","1","2021-09-27","14:39:07","fixation","Experiment_block_start","+","100","385","33","15","26","1","Acquisiton","15","26","1","33","36","0.6999999999999999556","0.2999999999999999889","CRIF","0","1","-1","5","5","3","12","left","4","21","6","1.5"
"6.5.0","Reversal_Task","1","2021-09-27","14:39:07","choice","Experiment_block_start","orange.bmp","100","357","33","15","26","1","Acquisiton","15","26","1","33","36","0.6999999999999999556","0.2999999999999999889","CRCF","0","1","1","6","6","3","12","left","4","21","6","1.5"
"6.5.0","Reversal_Task","1","2021-09-27","14:39:07","fixation","Experiment_block_start","+","100","357","33","15","26","1","Acquisiton","15","26","1","33","36","0.6999999999999999556","0.2999999999999999889","CRCF","0","1","1","6","6","4","12","left","5","21","6","2"
"6.5.0","Reversal_Task","1","2021-09-27","14:39:07","choice","Experiment_block_start","orange.bmp","100","389","36","15","26","1","Acquisiton","15","26","2","36","33","0.6999999999999999556","0.2999999999999999889","CRCF","0","1","1","7","7","4","12","left","5","21","6","2"
"6.5.0","Reversal_Task","1","2021-09-27","14:39:07","fixation","Experiment_block_start","+","100","389","36","15","26","1","Acquisiton","15","26","2","36","33","0.6999999999999999556","0.2999999999999999889","CRCF","0","1","1","7","7","5","12","left","6","21","6","2.5"
"6.5.0","Reversal_Task","1","2021-09-27","14:39:07","choice","Experiment_block_start","orange.bmp","100","350","36","15","26","1","Acquisiton","15","26","2","36","33","0.6999999999999999556","0.2999999999999999889","CRIF","0","1","-1","8","8","5","12","left","6","21","6","2.5"
"6.5.0","Reversal_Task","1","2021-09-27","14:39:07","fixation","Experiment_block_start","+","100","350","36","15","26","1","Acquisiton","15","26","2","36","33","0.6999999999999999556","0.2999999999999999889","CRIF","0","1","-1","8","8","5","12","left","7","21","6","2.5"
"6.5.0","Reversal_Task","1","2021-09-27","14:39:07","choice","Experiment_block_start","orange.bmp","100","360","33","15","26","1","Acquisiton","15","26","1","33","36","0.6999999999999999556","0.2999999999999999889","CRCF","0","1","1","9","9","5","12","left","7","21","6","2.5"
"6.5.0","Reversal_Task","1","2021-09-27","14:39:07","fixation","Experiment_block_start","+","100","360","33","15","26","1","Acquisiton","15","26","1","33","36","0.6999999999999999556","0.2999999999999999889","CRCF","0","1","1","9","9","6","12","left","8","21","6","3"
"6.5.0","Reversal_Task","1","2021-09-27","14:39:07","choice","Experiment_block_start","orange.bmp","100","376","33","15","26","1","Acquisiton","15","26","1","33","36","0.6999999999999999556","0.2999999999999999889","CRCF","0","1","1","10","10","6","12","left","8","21","6","3"
"6.5.0","Reversal_Task","1","2021-09-27","14:39:07","fixation","Experiment_block_start","+","100","376","33","15","26","1","Acquisiton","15","26","1","33","36","0.6999999999999999556","0.2999999999999999889","CRCF","0","1","1","10","10","7","12","left","9","21","6","3.5"
"6.5.0","Reversal_Task","1","2021-09-27","14:39:07","choice","Experiment_block_start","orange.bmp","100","349","36","15","26","1","Acquisiton","15","26","2","36","33","0.6999999999999999556","0.2999999999999999889","CRCF","0","1","1","11","11","7","12","left","9","21","6","3.5"
"6.5.0","Reversal_Task","1","2021-09-27","14:39:07","fixation","Experiment_block_start","+","100","349","36","15","26","1","Acquisiton","15","26","2","36","33","0.6999999999999999556","0.2999999999999999889","CRCF","0","1","1","11","11","8","12","left","10","21","6","4"
"6.5.0","Reversal_Task","1","2021-09-27","14:39:07","choice","Experiment_block_start","orange.bmp","100","445","36","15","26","1","Acquisiton","15","26","2","36","33","0.6999999999999999556","0.2999999999999999889","CRCF","0","1","1","12","12","8","12","left","10","21","6","4"
"6.5.0","Reversal_Task","1","2021-09-27","14:39:07","fixation","Experiment_block_start","+","100","445","36","15","26","1","Acquisiton","15","26","2","36","33","0.6999999999999999556","0.2999999999999999889","CRCF","0","1","1","12","12","9","12","left","11","21","6","4.5"
"6.5.0","Reversal_Task","1","2021-09-27","14:39:07","choice","Experiment_block_start","orange.bmp","100","354","36","15","26","1","Acquisiton","15","26","2","36","33","0.6999999999999999556","0.2999999999999999889","CRCF","0","1","1","13","13","9","12","left","11","21","6","4.5"
"6.5.0","Reversal_Task","1","2021-09-27","14:39:07","fixation","Experiment_block_start","+","100","354","36","15","26","1","Acquisiton","15","26","2","36","33","0.6999999999999999556","0.2999999999999999889","CRCF","0","1","1","13","13","10","12","left","12","21","6","5"
"6.5.0","Reversal_Task","1","2021-09-27","14:39:07","choice","Experiment_block_start","orange.bmp","100","378","33","15","26","1","Acquisiton","15","26","1","33","36","0.6999999999999999556","0.2999999999999999889","CRCF","0","1","1","14","14","10","12","left","12","21","6","5"
"6.5.0","Reversal_Task","1","2021-09-27","14:39:07","fixation","Experiment_block_start","+","100","378","33","15","26","1","Acquisiton","15","26","1","33","36","0.6999999999999999556","0.2999999999999999889","CRCF","0","1","1","14","14","11","12","left","13","21","6","5.5"
"6.5.0","Reversal_Task","1","2021-09-27","14:39:07","choice","Experiment_block_start","orange.bmp","100","332","36","15","26","1","Acquisiton","15","26","2","36","33","0.6999999999999999556","0.2999999999999999889","CRIF","0","1","-1","15","15","11","12","left","13","21","6","5.5"
"6.5.0","Reversal_Task","1","2021-09-27","14:39:07","fixation","Experiment_block_start","+","100","332","36","15","26","1","Acquisiton","15","26","2","36","33","0.6999999999999999556","0.2999999999999999889","CRIF","0","1","-1","15","15","11","12","left","14","21","6","5.5"
"6.5.0","Reversal_Task","1","2021-09-27","14:39:07","choice","Experiment_block_start","orange.bmp","100","343","33","15","26","1","Acquisiton","15","26","1","33","36","0.6999999999999999556","0.2999999999999999889","CRCF","0","1","1","16","16","11","12","left","14","21","6","5.5"
"6.5.0","Reversal_Task","1","2021-09-27","14:39:07","fixation","Experiment_block_start","+","100","343","33","15","26","1","Acquisiton","15","26","1","33","36","0.6999999999999999556","0.2999999999999999889","CRCF","0","1","1","16","16","12","12","left","15","21","6","6"
"6.5.0","Reversal_Task","1","2021-09-27","14:39:07","choice","Experiment_block_start","orange.bmp","100","307","36","15","26","1","Acquisiton","15","26","2","36","33","0.6999999999999999556","0.2999999999999999889","CRIF","0","1","-1","17","17","12","12","left","15","21","6","6"
"6.5.0","Reversal_Task","1","2021-09-27","14:39:07","fixation","Experiment_block_start","+","100","307","36","15","26","1","Acquisiton","15","26","2","36","33","0.6999999999999999556","0.2999999999999999889","CRIF","0","1","-1","17","17","12","12","left","16","21","6","6"
"6.5.0","Reversal_Task","1","2021-09-27","14:39:07","choice","Experiment_block_start","orange.bmp","100","355","36","15","26","1","Acquisiton","15","26","2","36","33","0.6999999999999999556","0.2999999999999999889","CRCF","0","1","1","18","18","12","12","left","16","21","6","6"
"6.5.0","Reversal_Task","1","2021-09-27","14:39:07","fixation","Experiment_block_start","+","100","355","36","15","26","1","Acquisiton","15","26","2","36","33","0.6999999999999999556","0.2999999999999999889","CRCF","0","1","1","18","18","13","12","left","17","21","6","6.5"
"6.5.0","Reversal_Task","1","2021-09-27","14:39:07","choice","Experiment_block_start","orange.bmp","100","407","33","15","26","1","Acquisiton","15","26","1","33","36","0.6999999999999999556","0.2999999999999999889","CRIF","0","1","-1","19","19","13","12","left","17","21","6","6.5"
"6.5.0","Reversal_Task","1","2021-09-27","14:39:07","fixation","Experiment_block_start","+","100","407","33","15","26","1","Acquisiton","15","26","1","33","36","0.6999999999999999556","0.2999999999999999889","CRIF","0","1","-1","19","19","13","12","left","18","21","6","6.5"
"6.5.0","Reversal_Task","1","2021-09-27","14:39:07","choice","Experiment_block_start","orange.bmp","100","327","36","15","26","1","Acquisiton","15","26","2","36","33","0.6999999999999999556","0.2999999999999999889","CRCF","0","1","1","20","20","13","12","left","18","21","6","6.5"
"6.5.0","Reversal_Task","1","2021-09-27","14:39:07","fixation","Experiment_block_start","+","100","327","36","15","26","1","Acquisiton","15","26","2","36","33","0.6999999999999999556","0.2999999999999999889","CRCF","0","1","1","20","20","14","12","left","19","21","6","7"
"6.5.0","Reversal_Task","1","2021-09-27","14:39:07","choice","Experiment_block_start","orange.bmp","100","373","33","15","26","1","Acquisiton","15","26","1","33","36","0.6999999999999999556","0.2999999999999999889","CRIF","0","1","-1","21","21","14","12","left","19","21","6","7"
"6.5.0","Reversal_Task","1","2021-09-27","14:39:07","fixation","Experiment_block_start","+","100","373","33","15","26","1","Acquisiton","15","26","1","33","36","0.6999999999999999556","0.2999999999999999889","CRIF","0","1","-1","21","21","14","12","left","20","21","6","7"
"6.5.0","Reversal_Task","1","2021-09-27","14:39:07","choice","Experiment_block_start","owl.bmp","100","518","33","26","15","1","Reversal","26","15","2","36","33","0.6999999999999999556","0.2999999999999999889","IRCF","0","-1","-1","22","22","14","12","left","20","21","6","7"
"6.5.0","Reversal_Task","1","2021-09-27","14:39:07","fixation","Experiment_block_start","+","100","518","33","26","15","1","Reversal","26","15","2","36","33","0.6999999999999999556","0.2999999999999999889","IRCF","0","-1","-1","22","22","15","12","left","0","21","6","7.5"
"6.5.0","Reversal_Task","1","2021-09-27","14:39:07","choice","Experiment_block_start","owl.bmp","100","367","33","26","15","1","Reversal","26","15","2","36","33","0.6999999999999999556","0.2999999999999999889","IRCF","0","-1","-1","23","23","15","12","left","0","21","6","7.5"
"6.5.0","Reversal_Task","1","2021-09-27","14:39:07","fixation","Experiment_block_start","+","100","367","33","26","15","1","Reversal","26","15","2","36","33","0.6999999999999999556","0.2999999999999999889","IRCF","0","-1","-1","23","23","16","12","left","0","21","6","8"
"6.5.0","Reversal_Task","1","2021-09-27","14:39:07","choice","Experiment_block_start","owl.bmp","100","350","33","26","15","1","Reversal","26","15","2","36","33","0.6999999999999999556","0.2999999999999999889","IRIF","0","-1","1","24","24","16","12","left","0","21","6","8"
"6.5.0","Reversal_Task","1","2021-09-27","14:39:07","fixation","Experiment_block_start","+","100","350","33","26","15","1","Reversal","26","15","2","36","33","0.6999999999999999556","0.2999999999999999889","IRIF","0","-1","1","24","24","16","12","left","0","21","6","8"
"6.5.0","Reversal_Task","1","2021-09-27","14:39:07","choice","Experiment_block_start","owl.bmp","100","361","36","26","15","1","Reversal","26","15","1","33","36","0.6999999999999999556","0.2999999999999999889","IRIF","0","-1","1","25","25","16","12","left","0","21","6","8"
"6.5.0","Reversal_Task","1","2021-09-27","14:39:07","fixation","Experiment_block_start","+","100","361","36","26","15","1","Reversal","26","15","1","33","36","0.6999999999999999556","0.2999999999999999889","IRIF","0","-1","1","25","25","16","12","left","0","21","6","8"
"6.5.0","Reversal_Task","1","2021-09-27","14:39:07","choice","Experiment_block_start","owl.bmp","100","360","36","26","15","1","Reversal","26","15","1","33","36","0.6999999999999999556","0.2999999999999999889","IRIF","0","-1","1","26","26","16","12","left","0","21","6","8"
"6.5.0","Reversal_Task","1","2021-09-27","14:39:07","fixation","Experiment_block_start","+","100","360","36","26","15","1","Reversal","26","15","1","33","36","0.6999999999999999556","0.2999999999999999889","IRIF","0","-1","1","26","26","16","12","left","0","21","6","8"
"6.5.0","Reversal_Task","1","2021-09-27","14:39:07","choice","Experiment_block_start","owl.bmp","100","559","36","26","15","1","Reversal","26","15","1","33","36","0.6999999999999999556","0.2999999999999999889","IRCF","0","-1","-1","27","27","16","12","left","0","21","6","8"
"6.5.0","Reversal_Task","1","2021-09-27","14:39:07","fixation","Experiment_block_start","+","100","559","36","26","15","1","Reversal","26","15","1","33","36","0.6999999999999999556","0.2999999999999999889","IRCF","0","-1","-1","27","27","17","12","left","0","21","6","8.5"
"6.5.0","Reversal_Task","1","2021-09-27","14:39:07","choice","Experiment_block_start","owl.bmp","100","509","36","26","15","1","Reversal","26","15","1","33","36","0.6999999999999999556","0.2999999999999999889","IRIF","0","-1","1","28","28","17","12","left","0","21","6","8.5"
"6.5.0","Reversal_Task","1","2021-09-27","14:39:07","fixation","Experiment_block_start","+","100","509","36","26","15","1","Reversal","26","15","1","33","36","0.6999999999999999556","0.2999999999999999889","IRIF","0","-1","1","28","28","17","12","left","0","21","6","8.5"
"6.5.0","Reversal_Task","1","2021-09-27","14:39:07","choice","Experiment_block_start","owl.bmp","100","412","33","26","15","1","Reversal","26","15","2","36","33","0.6999999999999999556","0.2999999999999999889","IRIF","0","-1","1","29","29","17","12","left","0","21","6","8.5"
"6.5.0","Reversal_Task","1","2021-09-27","14:39:07","fixation","Experiment_block_start","+","100","412","33","26","15","1","Reversal","26","15","2","36","33","0.6999999999999999556","0.2999999999999999889","IRIF","0","-1","1","29","29","17","12","left","0","21","6","8.5"
"6.5.0","Reversal_Task","1","2021-09-27","14:39:07","choice","Experiment_block_start","owl.bmp","100","1080","33","26","15","1","Reversal","26","15","1","33","36","0.6999999999999999556","0.2999999999999999889","CRCF","0","1","1","30","30","17","12","left","0","21","6","8.5"
"6.5.0","Reversal_Task","1","2021-09-27","14:39:07","fixation","Experiment_block_start","+","100","1080","33","26","15","1","Reversal","26","15","1","33","36","0.6999999999999999556","0.2999999999999999889","CRCF","0","1","1","30","30","18","12","left","1","21","6","9"
"6.5.0","Reversal_Task","1","2021-09-27","14:39:07","choice","Experiment_block_start","owl.bmp","100","573","33","26","15","1","Reversal","26","15","1","33","36","0.6999999999999999556","0.2999999999999999889","CRCF","0","1","1","31","31","18","12","left","1","21","6","9"
"6.5.0","Reversal_Task","1","2021-09-27","14:39:07","fixation","Experiment_block_start","+","100","573","33","26","15","1","Reversal","26","15","1","33","36","0.6999999999999999556","0.2999999999999999889","CRCF","0","1","1","31","31","19","12","left","2","21","6","9.5"
"6.5.0","Reversal_Task","1","2021-09-27","14:39:07","choice","Experiment_block_start","owl.bmp","100","612","33","26","15","1","Reversal","26","15","1","33","36","0.6999999999999999556","0.2999999999999999889","CRCF","0","1","1","32","32","19","12","left","2","21","6","9.5"
"6.5.0","Reversal_Task","1","2021-09-27","14:39:07","fixation","Experiment_block_start","+","100","612","33","26","15","1","Reversal","26","15","1","33","36","0.6999999999999999556","0.2999999999999999889","CRCF","0","1","1","32","32","20","12","left","3","21","6","10"
"6.5.0","Reversal_Task","1","2021-09-27","14:39:07","choice","Experiment_block_start","owl.bmp","100","442","33","26","15","1","Reversal","26","15","1","33","36","0.6999999999999999556","0.2999999999999999889","CRCF","0","1","1","33","33","20","12","left","3","21","6","10"
"6.5.0","Reversal_Task","1","2021-09-27","14:39:07","fixation","Experiment_block_start","+","100","442","33","26","15","1","Reversal","26","15","1","33","36","0.6999999999999999556","0.2999999999999999889","CRCF","0","1","1","33","33","21","12","left","4","21","6","10.5"
"6.5.0","Reversal_Task","1","2021-09-27","14:39:07","choice","Experiment_block_start","owl.bmp","100","389","33","26","15","1","Reversal","26","15","1","33","36","0.6999999999999999556","0.2999999999999999889","CRCF","0","1","1","34","34","21","12","left","4","21","6","10.5"
"6.5.0","Reversal_Task","1","2021-09-27","14:39:07","fixation","Experiment_block_start","+","100","389","33","26","15","1","Reversal","26","15","1","33","36","0.6999999999999999556","0.2999999999999999889","CRCF","0","1","1","34","34","22","12","left","5","21","6","11"
"6.5.0","Reversal_Task","1","2021-09-27","14:39:07","choice","Experiment_block_start","owl.bmp","100","367","33","26","15","1","Reversal","26","15","1","33","36","0.6999999999999999556","0.2999999999999999889","CRIF","0","1","-1","35","35","22","12","left","5","21","6","11"
"6.5.0","Reversal_Task","1","2021-09-27","14:39:07","fixation","Experiment_block_start","+","100","367","33","26","15","1","Reversal","26","15","1","33","36","0.6999999999999999556","0.2999999999999999889","CRIF","0","1","-1","35","35","22","12","left","6","21","6","11"
"6.5.0","Reversal_Task","1","2021-09-27","14:39:07","choice","Experiment_block_start","owl.bmp","100","387","36","26","15","1","Reversal","26","15","2","36","33","0.6999999999999999556","0.2999999999999999889","CRCF","0","1","1","36","36","22","12","left","6","21","6","11"
"6.5.0","Reversal_Task","1","2021-09-27","14:39:07","fixation","Experiment_block_start","+","100","387","36","26","15","1","Reversal","26","15","2","36","33","0.6999999999999999556","0.2999999999999999889","CRCF","0","1","1","36","36","23","12","left","7","21","6","11.5"
"6.5.0","Reversal_Task","1","2021-09-27","14:39:07","choice","Experiment_block_start","owl.bmp","100","389","36","26","15","1","Reversal","26","15","2","36","33","0.6999999999999999556","0.2999999999999999889","CRIF","0","1","-1","37","37","23","12","left","7","21","6","11.5"
"6.5.0","Reversal_Task","1","2021-09-27","14:39:07","fixation","Experiment_block_start","+","100","389","36","26","15","1","Reversal","26","15","2","36","33","0.6999999999999999556","0.2999999999999999889","CRIF","0","1","-1","37","37","23","12","left","8","21","6","11.5"
"6.5.0","Reversal_Task","1","2021-09-27","14:39:07","choice","Experiment_block_start","owl.bmp","100","341","36","26","15","1","Reversal","26","15","2","36","33","0.6999999999999999556","0.2999999999999999889","CRIF","0","1","-1","38","38","23","12","left","8","21","6","11.5"
"6.5.0","Reversal_Task","1","2021-09-27","14:39:07","fixation","Experiment_block_start","+","100","341","36","26","15","1","Reversal","26","15","2","36","33","0.6999999999999999556","0.2999999999999999889","CRIF","0","1","-1","38","38","23","12","left","9","21","6","11.5"
"6.5.0","Reversal_Task","1","2021-09-27","14:39:07","choice","Experiment_block_start","owl.bmp","100","518","33","26","15","1","Reversal","26","15","1","33","36","0.6999999999999999556","0.2999999999999999889","CRCF","0","1","1","39","39","23","12","left","9","21","6","11.5"
"6.5.0","Reversal_Task","1","2021-09-27","14:39:07","fixation","Experiment_block_start","+","100","518","33","26","15","1","Reversal","26","15","1","33","36","0.6999999999999999556","0.2999999999999999889","CRCF","0","1","1","39","39","24","12","left","10","21","6","12"
"6.5.0","Reversal_Task","1","2021-09-27","14:39:07","choice","Experiment_block_start","owl.bmp","100","423","33","26","15","1","Reversal","26","15","1","33","36","0.6999999999999999556","0.2999999999999999889","CRCF","0","1","1","40","40","24","12","left","10","21","6","12"
"6.5.0","Reversal_Task","1","2021-09-27","14:39:07","fixation","Experiment_block_start","+","100","423","33","26","15","2","Reversal","26","15","1","33","36","0.6999999999999999556","0.2999999999999999889","CRCF","0","1","1","40","40","25","12","left","11","21","6","12.5"
"6.5.0","Reversal_Task","1","2021-09-27","14:39:07","reset_trial","Experiment_block_start","Press SPACE to continue","100","423","33","26","15","2","Reversal","26","15","1","33","36","0.6999999999999999556","0.2999999999999999889","CRCF","0","1","1","0","40","0","43","left","0","23","21.5","0"
"6.5.0","Reversal_Task","1","2021-09-27","14:39:07","choice","Experiment_block_start","dinosaur.bmp","0","2000","0","32","35","2","Acquisiton","32","35","1","33","36","0.6999999999999999556","0.2999999999999999889","NRNF","0","0","1","1","41","0","74","left","0","23","37","0"
"6.5.0","Reversal_Task","1","2021-09-27","14:39:07","fixation","Experiment_block_start","+","0","2000","0","32","35","2","Acquisiton","32","35","1","33","36","0.6999999999999999556","0.2999999999999999889","NRNF","0","0","1","1","41","0","74","left","0","23","37","0"
"6.5.0","Reversal_Task","1","2021-09-27","14:39:07","choice","Experiment_block_start","dinosaur.bmp","50","899","33","32","35","2","Acquisiton","32","35","1","33","36","0.6999999999999999556","0.2999999999999999889","CRIF","0","1","-1","2","42","0","74","left","0","23","37","0"
"6.5.0","Reversal_Task","1","2021-09-27","14:39:07","fixation","Experiment_block_start","+","50","899","33","32","35","2","Acquisiton","32","35","1","33","36","0.6999999999999999556","0.2999999999999999889","CRIF","0","1","-1","2","42","0","74","left","1","23","37","0"
"6.5.0","Reversal_Task","1","2021-09-27","14:39:07","choice","Experiment_block_start","dinosaur.bmp","66","511","36","32","35","2","Acquisiton","32","35","1","33","36","0.6999999999999999556","0.2999999999999999889","IRIF","0","-1","1","3","43","0","74","left","1","23","37","0"
"6.5.0","Reversal_Task","1","2021-09-27","14:39:07","fixation","Experiment_block_start","+","66","511","36","32","35","2","Acquisiton","32","35","1","33","36","0.6999999999999999556","0.2999999999999999889","IRIF","0","-1","1","3","43","0","74","left","0","23","37","0"
"6.5.0","Reversal_Task","1","2021-09-27","14:39:07","choice","Experiment_block_start","dinosaur.bmp","75","425","33","32","35","2","Acquisiton","32","35","1","33","36","0.6999999999999999556","0.2999999999999999889","CRCF","0","1","1","4","44","0","74","left","0","23","37","0"
"6.5.0","Reversal_Task","1","2021-09-27","14:39:07","fixation","Experiment_block_start","+","75","425","33","32","35","2","Acquisiton","32","35","1","33","36","0.6999999999999999556","0.2999999999999999889","CRCF","0","1","1","4","44","1","74","left","1","23","37","0.5"
"6.5.0","Reversal_Task","1","2021-09-27","14:39:07","choice","Experiment_block_start","dinosaur.bmp","80","341","33","32","35","2","Acquisiton","32","35","1","33","36","0.6999999999999999556","0.2999999999999999889","CRCF","0","1","1","5","45","1","74","left","1","23","37","0.5"
"6.5.0","Reversal_Task","1","2021-09-27","14:39:07","fixation","Experiment_block_start","+","80","341","33","32","35","2","Acquisiton","32","35","1","33","36","0.6999999999999999556","0.2999999999999999889","CRCF","0","1","1","5","45","2","74","left","2","23","37","1"
"6.5.0","Reversal_Task","1","2021-09-27","14:39:07","choice","Experiment_block_start","dinosaur.bmp","83","350","33","32","35","2","Acquisiton","32","35","1","33","36","0.6999999999999999556","0.2999999999999999889","CRCF","0","1","1","6","46","2","74","left","2","23","37","1"
"6.5.0","Reversal_Task","1","2021-09-27","14:39:07","fixation","Experiment_block_start","+","83","350","33","32","35","2","Acquisiton","32","35","1","33","36","0.6999999999999999556","0.2999999999999999889","CRCF","0","1","1","6","46","3","74","left","3","23","37","1.5"
"6.5.0","Reversal_Task","1","2021-09-27","14:39:07","choice","Experiment_block_start","dinosaur.bmp","85","444","33","32","35","2","Acquisiton","32","35","1","33","36","0.6999999999999999556","0.2999999999999999889","CRCF","0","1","1","7","47","3","74","left","3","23","37","1.5"
"6.5.0","Reversal_Task","1","2021-09-27","14:39:07","fixation","Experiment_block_start","+","85","444","33","32","35","2","Acquisiton","32","35","1","33","36","0.6999999999999999556","0.2999999999999999889","CRCF","0","1","1","7","47","4","74","left","4","23","37","2"
"6.5.0","Reversal_Task","1","2021-09-27","14:39:07","choice","Experiment_block_start","dinosaur.bmp","87","473","33","32","35","2","Acquisiton","32","35","1","33","36","0.6999999999999999556","0.2999999999999999889","CRCF","0","1","1","8","48","4","74","left","4","23","37","2"
"6.5.0","Reversal_Task","1","2021-09-27","14:39:07","fixation","Experiment_block_start","+","87","473","33","32","35","2","Acquisiton","32","35","1","33","36","0.6999999999999999556","0.2999999999999999889","CRCF","0","1","1","8","48","5","74","left","5","23","37","2.5"
"6.5.0","Reversal_Task","1","2021-09-27","14:39:07","choice","Experiment_block_start","dinosaur.bmp","88","716","33","32","35","2","Acquisiton","32","35","1","33","36","0.6999999999999999556","0.2999999999999999889","CRIF","0","1","-1","9","49","5","74","left","5","23","37","2.5"
"6.5.0","Reversal_Task","1","2021-09-27","14:39:07","fixation","Experiment_block_start","+","88","716","33","32","35","2","Acquisiton","32","35","1","33","36","0.6999999999999999556","0.2999999999999999889","CRIF","0","1","-1","9","49","5","74","left","6","23","37","2.5"
"6.5.0","Reversal_Task","1","2021-09-27","14:39:07","choice","Experiment_block_start","dinosaur.bmp","90","618","33","32","35","2","Acquisiton","32","35","1","33","36","0.6999999999999999556","0.2999999999999999889","CRIF","0","1","-1","10","50","5","74","left","6","23","37","2.5"
"6.5.0","Reversal_Task","1","2021-09-27","14:39:07","fixation","Experiment_block_start","+","90","618","33","32","35","2","Acquisiton","32","35","1","33","36","0.6999999999999999556","0.2999999999999999889","CRIF","0","1","-1","10","50","5","74","left","7","23","37","2.5"
"6.5.0","Reversal_Task","1","2021-09-27","14:39:07","choice","Experiment_block_start","dinosaur.bmp","90","586","36","32","35","2","Acquisiton","32","35","2","36","33","0.6999999999999999556","0.2999999999999999889","CRIF","0","1","-1","11","51","5","74","left","7","23","37","2.5"
"6.5.0","Reversal_Task","1","2021-09-27","14:39:07","fixation","Experiment_block_start","+","90","586","36","32","35","2","Acquisiton","32","35","2","36","33","0.6999999999999999556","0.2999999999999999889","CRIF","0","1","-1","11","51","5","74","left","8","23","37","2.5"
"6.5.0","Reversal_Task","1","2021-09-27","14:39:07","choice","Experiment_block_start","dinosaur.bmp","91","722","33","32","35","2","Acquisiton","32","35","1","33","36","0.6999999999999999556","0.2999999999999999889","CRCF","0","1","1","12","52","5","74","left","8","23","37","2.5"
"6.5.0","Reversal_Task","1","2021-09-27","14:39:07","fixation","Experiment_block_start","+","91","722","33","32","35","2","Acquisiton","32","35","1","33","36","0.6999999999999999556","0.2999999999999999889","CRCF","0","1","1","12","52","6","74","left","9","23","37","3"
"6.5.0","Reversal_Task","1","2021-09-27","14:39:07","choice","Experiment_block_start","dinosaur.bmp","92","467","36","32","35","2","Acquisiton","32","35","2","36","33","0.6999999999999999556","0.2999999999999999889","CRCF","0","1","1","13","53","6","74","left","9","23","37","3"
"6.5.0","Reversal_Task","1","2021-09-27","14:39:07","fixation","Experiment_block_start","+","92","467","36","32","35","2","Acquisiton","32","35","2","36","33","0.6999999999999999556","0.2999999999999999889","CRCF","0","1","1","13","53","7","74","left","10","23","37","3.5"
"6.5.0","Reversal_Task","1","2021-09-27","14:39:07","choice","Experiment_block_start","dinosaur.bmp","92","710","33","32","35","2","Acquisiton","32","35","1","33","36","0.6999999999999999556","0.2999999999999999889","CRCF","0","1","1","14","54","7","74","left","10","23","37","3.5"
"6.5.0","Reversal_Task","1","2021-09-27","14:39:07","fixation","Experiment_block_start","+","92","710","33","32","35","2","Acquisiton","32","35","1","33","36","0.6999999999999999556","0.2999999999999999889","CRCF","0","1","1","14","54","8","74","left","11","23","37","4"
"6.5.0","Reversal_Task","1","2021-09-27","14:39:07","choice","Experiment_block_start","dinosaur.bmp","93","829","33","32","35","2","Acquisiton","32","35","1","33","36","0.6999999999999999556","0.2999999999999999889","CRIF","0","1","-1","15","55","8","74","left","11","23","37","4"
"6.5.0","Reversal_Task","1","2021-09-27","14:39:07","fixation","Experiment_block_start","+","93","829","33","32","35","2","Acquisiton","32","35","1","33","36","0.6999999999999999556","0.2999999999999999889","CRIF","0","1","-1","15","55","8","74","left","12","23","37","4"
"6.5.0","Reversal_Task","1","2021-09-27","14:39:07","choice","Experiment_block_start","dinosaur.bmp","93","828","33","32","35","2","Acquisiton","32","35","1","33","36","0.6999999999999999556","0.2999999999999999889","CRCF","0","1","1","16","56","8","74","left","12","23","37","4"
"6.5.0","Reversal_Task","1","2021-09-27","14:39:07","fixation","Experiment_block_start","+","93","828","33","32","35","2","Acquisiton","32","35","1","33","36","0.6999999999999999556","0.2999999999999999889","CRCF","0","1","1","16","56","9","74","left","13","23","37","4.5"
"6.5.0","Reversal_Task","1","2021-09-27","14:39:07","choice","Experiment_block_start","dinosaur.bmp","94","716","33","32","35","2","Acquisiton","32","35","1","33","36","0.6999999999999999556","0.2999999999999999889","CRIF","0","1","-1","17","57","9","74","left","13","23","37","4.5"
"6.5.0","Reversal_Task","1","2021-09-27","14:39:07","fixation","Experiment_block_start","+","94","716","33","32","35","2","Acquisiton","32","35","1","33","36","0.6999999999999999556","0.2999999999999999889","CRIF","0","1","-1","17","57","9","74","left","14","23","37","4.5"
"6.5.0","Reversal_Task","1","2021-09-27","14:39:07","choice","Experiment_block_start","dinosaur.bmp","94","820","33","32","35","2","Acquisiton","32","35","1","33","36","0.6999999999999999556","0.2999999999999999889","CRIF","0","1","-1","18","58","9","74","left","14","23","37","4.5"
"6.5.0","Reversal_Task","1","2021-09-27","14:39:07","fixation","Experiment_block_start","+","94","820","33","32","35","2","Acquisiton","32","35","1","33","36","0.6999999999999999556","0.2999999999999999889","CRIF","0","1","-1","18","58","9","74","left","15","23","37","4.5"
"6.5.0","Reversal_Task","1","2021-09-27","14:39:07","choice","Experiment_block_start","dinosaur.bmp","94","409","36","32","35","2","Acquisiton","32","35","2","36","33","0.6999999999999999556","0.2999999999999999889","CRCF","0","1","1","19","59","9","74","left","15","23","37","4.5"
"6.5.0","Reversal_Task","1","2021-09-27","14:39:07","fixation","Experiment_block_start","+","94","409","36","32","35","2","Acquisiton","32","35","2","36","33","0.6999999999999999556","0.2999999999999999889","CRCF","0","1","1","19","59","10","74","left","16","23","37","5"
"6.5.0","Reversal_Task","1","2021-09-27","14:39:07","choice","Experiment_block_start","dinosaur.bmp","95","416","36","32","35","2","Acquisiton","32","35","2","36","33","0.6999999999999999556","0.2999999999999999889","CRIF","0","1","-1","20","60","10","74","left","16","23","37","5"
"6.5.0","Reversal_Task","1","2021-09-27","14:39:07","fixation","Experiment_block_start","+","95","416","36","32","35","2","Acquisiton","32","35","2","36","33","0.6999999999999999556","0.2999999999999999889","CRIF","0","1","-1","20","60","10","74","left","17","23","37","5"
"6.5.0","Reversal_Task","1","2021-09-27","14:39:07","choice","Experiment_block_start","dinosaur.bmp","95","441","36","32","35","2","Acquisiton","32","35","2","36","33","0.6999999999999999556","0.2999999999999999889","CRCF","0","1","1","21","61","10","74","left","17","23","37","5"
"6.5.0","Reversal_Task","1","2021-09-27","14:39:07","fixation","Experiment_block_start","+","95","441","36","32","35","2","Acquisiton","32","35","2","36","33","0.6999999999999999556","0.2999999999999999889","CRCF","0","1","1","21","61","11","74","left","18","23","37","5.5"
"6.5.0","Reversal_Task","1","2021-09-27","14:39:07","choice","Experiment_block_start","dinosaur.bmp","95","447","33","32","35","2","Acquisiton","32","35","1","33","36","0.6999999999999999556","0.2999999999999999889","CRCF","0","1","1","22","62","11","74","left","18","23","37","5.5"
"6.5.0","Reversal_Task","1","2021-09-27","14:39:07","fixation","Experiment_block_start","+","95","447","33","32","35","2","Acquisiton","32","35","1","33","36","0.6999999999999999556","0.2999999999999999889","CRCF","0","1","1","22","62","12","74","left","19","23","37","6"
"6.5.0","Reversal_Task","1","2021-09-27","14:39:07","choice","Experiment_block_start","dinosaur.bmp","95","819","33","32","35","2","Acquisiton","32","35","1","33","36","0.6999999999999999556","0.2999999999999999889","CRCF","0","1","1","23","63","12","74","left","19","23","37","6"
"6.5.0","Reversal_Task","1","2021-09-27","14:39:07","fixation","Experiment_block_start","+","95","819","33","32","35","2","Acquisiton","32","35","1","33","36","0.6999999999999999556","0.2999999999999999889","CRCF","0","1","1","23","63","13","74","left","20","23","37","6.5"
"6.5.0","Reversal_Task","1","2021-09-27","14:39:07","choice","Experiment_block_start","snail.bmp","95","740","33","35","32","2","Reversal","35","32","2","36","33","0.6999999999999999556","0.2999999999999999889","IRCF","0","-1","-1","24","64","13","74","left","20","23","37","6.5"
"6.5.0","Reversal_Task","1","2021-09-27","14:39:07","fixation","Experiment_block_start","+","95","740","33","35","32","2","Reversal","35","32","2","36","33","0.6999999999999999556","0.2999999999999999889","IRCF","0","-1","-1","24","64","14","74","left","0","23","37","7"
"6.5.0","Reversal_Task","1","2021-09-27","14:39:07","choice","Experiment_block_start","snail.bmp","96","795","33","35","32","2","Reversal","35","32","2","36","33","0.6999999999999999556","0.2999999999999999889","IRIF","0","-1","1","25","65","14","74","left","0","23","37","7"
"6.5.0","Reversal_Task","1","2021-09-27","14:39:07","fixation","Experiment_block_start","+","96","795","33","35","32","2","Reversal","35","32","2","36","33","0.6999999999999999556","0.2999999999999999889","IRIF","0","-1","1","25","65","14","74","left","0","23","37","7"
"6.5.0","Reversal_Task","1","2021-09-27","14:39:07","choice","Experiment_block_start","snail.bmp","96","560","36","35","32","2","Reversal","35","32","1","33","36","0.6999999999999999556","0.2999999999999999889","IRIF","0","-1","1","26","66","14","74","left","0","23","37","7"
"6.5.0","Reversal_Task","1","2021-09-27","14:39:07","fixation","Experiment_block_start","+","96","560","36","35","32","2","Reversal","35","32","1","33","36","0.6999999999999999556","0.2999999999999999889","IRIF","0","-1","1","26","66","14","74","left","0","23","37","7"
"6.5.0","Reversal_Task","1","2021-09-27","14:39:07","choice","Experiment_block_start","snail.bmp","96","573","36","35","32","2","Reversal","35","32","1","33","36","0.6999999999999999556","0.2999999999999999889","IRIF","0","-1","1","27","67","14","74","left","0","23","37","7"
"6.5.0","Reversal_Task","1","2021-09-27","14:39:07","fixation","Experiment_block_start","+","96","573","36","35","32","2","Reversal","35","32","1","33","36","0.6999999999999999556","0.2999999999999999889","IRIF","0","-1","1","27","67","14","74","left","0","23","37","7"
"6.5.0","Reversal_Task","1","2021-09-27","14:39:07","choice","Experiment_block_start","snail.bmp","96","910","33","35","32","2","Reversal","35","32","1","33","36","0.6999999999999999556","0.2999999999999999889","CRCF","0","1","1","28","68","14","74","left","0","23","37","7"
"6.5.0","Reversal_Task","1","2021-09-27","14:39:07","fixation","Experiment_block_start","+","96","910","33","35","32","2","Reversal","35","32","1","33","36","0.6999999999999999556","0.2999999999999999889","CRCF","0","1","1","28","68","15","74","left","1","23","37","7.5"
"6.5.0","Reversal_Task","1","2021-09-27","14:39:07","choice","Experiment_block_start","snail.bmp","96","867","33","35","32","2","Reversal","35","32","1","33","36","0.6999999999999999556","0.2999999999999999889","CRCF","0","1","1","29","69","15","74","left","1","23","37","7.5"
"6.5.0","Reversal_Task","1","2021-09-27","14:39:07","fixation","Experiment_block_start","+","96","867","33","35","32","2","Reversal","35","32","1","33","36","0.6999999999999999556","0.2999999999999999889","CRCF","0","1","1","29","69","16","74","left","2","23","37","8"
"6.5.0","Reversal_Task","1","2021-09-27","14:39:07","choice","Experiment_block_start","snail.bmp","96","882","36","35","32","2","Reversal","35","32","2","36","33","0.6999999999999999556","0.2999999999999999889","CRCF","0","1","1","30","70","16","74","left","2","23","37","8"
"6.5.0","Reversal_Task","1","2021-09-27","14:39:07","fixation","Experiment_block_start","+","96","882","36","35","32","2","Reversal","35","32","2","36","33","0.6999999999999999556","0.2999999999999999889","CRCF","0","1","1","30","70","17","74","left","3","23","37","8.5"
"6.5.0","Reversal_Task","1","2021-09-27","14:39:07","choice","Experiment_block_start","snail.bmp","96","995","36","35","32","2","Reversal","35","32","2","36","33","0.6999999999999999556","0.2999999999999999889","CRIF","0","1","-1","31","71","17","74","left","3","23","37","8.5"
"6.5.0","Reversal_Task","1","2021-09-27","14:39:07","fixation","Experiment_block_start","+","96","995","36","35","32","2","Reversal","35","32","2","36","33","0.6999999999999999556","0.2999999999999999889","CRIF","0","1","-1","31","71","17","74","left","4","23","37","8.5"
"6.5.0","Reversal_Task","1","2021-09-27","14:39:07","choice","Experiment_block_start","snail.bmp","96","426","33","35","32","2","Reversal","35","32","1","33","36","0.6999999999999999556","0.2999999999999999889","CRCF","0","1","1","32","72","17","74","left","4","23","37","8.5"
"6.5.0","Reversal_Task","1","2021-09-27","14:39:07","fixation","Experiment_block_start","+","96","426","33","35","32","2","Reversal","35","32","1","33","36","0.6999999999999999556","0.2999999999999999889","CRCF","0","1","1","32","72","18","74","left","5","23","37","9"
"6.5.0","Reversal_Task","1","2021-09-27","14:39:07","choice","Experiment_block_start","snail.bmp","96","462","33","35","32","2","Reversal","35","32","1","33","36","0.6999999999999999556","0.2999999999999999889","CRCF","0","1","1","33","73","18","74","left","5","23","37","9"
"6.5.0","Reversal_Task","1","2021-09-27","14:39:07","fixation","Experiment_block_start","+","96","462","33","35","32","2","Reversal","35","32","1","33","36","0.6999999999999999556","0.2999999999999999889","CRCF","0","1","1","33","73","19","74","left","6","23","37","9.5"
"6.5.0","Reversal_Task","1","2021-09-27","14:39:07","choice","Experiment_block_start","snail.bmp","97","657","36","35","32","2","Reversal","35","32","2","36","33","0.6999999999999999556","0.2999999999999999889","CRCF","0","1","1","34","74","19","74","left","6","23","37","9.5"
"6.5.0","Reversal_Task","1","2021-09-27","14:39:07","fixation","Experiment_block_start","+","97","657","36","35","32","2","Reversal","35","32","2","36","33","0.6999999999999999556","0.2999999999999999889","CRCF","0","1","1","34","74","20","74","left","7","23","37","10"
"6.5.0","Reversal_Task","1","2021-09-27","14:39:07","choice","Experiment_block_start","snail.bmp","97","566","33","35","32","2","Reversal","35","32","1","33","36","0.6999999999999999556","0.2999999999999999889","CRCF","0","1","1","35","75","20","74","left","7","23","37","10"
"6.5.0","Reversal_Task","1","2021-09-27","14:39:07","fixation","Experiment_block_start","+","97","566","33","35","32","2","Reversal","35","32","1","33","36","0.6999999999999999556","0.2999999999999999889","CRCF","0","1","1","35","75","21","74","left","8","23","37","10.5"
"6.5.0","Reversal_Task","1","2021-09-27","14:39:07","choice","Experiment_block_start","snail.bmp","97","680","36","35","32","2","Reversal","35","32","2","36","33","0.6999999999999999556","0.2999999999999999889","CRIF","0","1","-1","36","76","21","74","left","8","23","37","10.5"
"6.5.0","Reversal_Task","1","2021-09-27","14:39:07","fixation","Experiment_block_start","+","97","680","36","35","32","2","Reversal","35","32","2","36","33","0.6999999999999999556","0.2999999999999999889","CRIF","0","1","-1","36","76","21","74","left","9","23","37","10.5"
"6.5.0","Reversal_Task","1","2021-09-27","14:39:07","choice","Experiment_block_start","snail.bmp","97","641","33","35","32","2","Reversal","35","32","1","33","36","0.6999999999999999556","0.2999999999999999889","CRCF","0","1","1","37","77","21","74","left","9","23","37","10.5"
"6.5.0","Reversal_Task","1","2021-09-27","14:39:07","fixation","Experiment_block_start","+","97","641","33","35","32","2","Reversal","35","32","1","33","36","0.6999999999999999556","0.2999999999999999889","CRCF","0","1","1","37","77","22","74","left","10","23","37","11"
"6.5.0","Reversal_Task","1","2021-09-27","14:39:07","choice","Experiment_block_start","snail.bmp","97","560","33","35","32","2","Reversal","35","32","1","33","36","0.6999999999999999556","0.2999999999999999889","CRIF","0","1","-1","38","78","22","74","left","10","23","37","11"
"6.5.0","Reversal_Task","1","2021-09-27","14:39:07","fixation","Experiment_block_start","+","97","560","33","35","32","2","Reversal","35","32","1","33","36","0.6999999999999999556","0.2999999999999999889","CRIF","0","1","-1","38","78","22","74","left","11","23","37","11"
"6.5.0","Reversal_Task","1","2021-09-27","14:39:07","choice","Experiment_block_start","snail.bmp","97","643","36","35","32","2","Reversal","35","32","2","36","33","0.6999999999999999556","0.2999999999999999889","CRCF","0","1","1","39","79","22","74","left","11","23","37","11"
"6.5.0","Reversal_Task","1","2021-09-27","14:39:07","fixation","Experiment_block_start","+","97","643","36","35","32","2","Reversal","35","32","2","36","33","0.6999999999999999556","0.2999999999999999889","CRCF","0","1","1","39","79","23","74","left","12","23","37","11.5"
"6.5.0","Reversal_Task","1","2021-09-27","14:39:07","choice","Experiment_block_start","snail.bmp","97","728","33","35","32","2","Reversal","35","32","1","33","36","0.6999999999999999556","0.2999999999999999889","CRCF","0","1","1","40","80","23","74","left","12","23","37","11.5"
"6.5.0","Reversal_Task","1","2021-09-27","14:39:07","fixation","Experiment_block_start","+","97","728","33","35","32","3","Reversal","35","32","1","33","36","0.6999999999999999556","0.2999999999999999889","CRCF","0","1","1","40","80","24","74","left","13","23","37","12"
"6.5.0","Reversal_Task","1","2021-09-27","14:39:07","reset_trial","Experiment_block_start","Press SPACE to continue","97","728","33","35","32","3","Reversal","35","32","1","33","36","0.6999999999999999556","0.2999999999999999889","CRCF","0","1","1","0","80","0","108","left","0","16","54","0"
"6.5.0","Reversal_Task","1","2021-09-27","14:39:07","choice","Experiment_block_start","skate.bmp","100","1744","33","8","33","3","Acquisiton","8","33","2","36","33","0.6999999999999999556","0.2999999999999999889","IRIF","0","-1","1","1","81","0","142","left","0","16","71","0"
"6.5.0","Reversal_Task","1","2021-09-27","14:39:07","fixation","Experiment_block_start","+","100","1744","33","8","33","3","Acquisiton","8","33","2","36","33","0.6999999999999999556","0.2999999999999999889","IRIF","0","-1","1","1","81","0","142","left","0","16","71","0"
"6.5.0","Reversal_Task","1","2021-09-27","14:39:07","choice","Experiment_block_start","skate.bmp","100","936","33","8","33","3","Acquisiton","8","33","1","33","36","0.6999999999999999556","0.2999999999999999889","CRCF","0","1","1","2","82","0","142","left","0","16","71","0"
"6.5.0","Reversal_Task","1","2021-09-27","14:39:07","fixation","Experiment_block_start","+","100","936","33","8","33","3","Acquisiton","8","33","1","33","36","0.6999999999999999556","0.2999999999999999889","CRCF","0","1","1","2","82","1","142","left","1","16","71","0.5"
"6.5.0","Reversal_Task","1","2021-09-27","14:39:07","choice","Experiment_block_start","skate.bmp","100","546","36","8","33","3","Acquisiton","8","33","2","36","33","0.6999999999999999556","0.2999999999999999889","CRCF","0","1","1","3","83","1","142","left","1","16","71","0.5"
"6.5.0","Reversal_Task","1","2021-09-27","14:39:07","fixation","Experiment_block_start","+","100","546","36","8","33","3","Acquisiton","8","33","2","36","33","0.6999999999999999556","0.2999999999999999889","CRCF","0","1","1","3","83","2","142","left","2","16","71","1"
"6.5.0","Reversal_Task","1","2021-09-27","14:39:07","choice","Experiment_block_start","skate.bmp","100","622","36","8","33","3","Acquisiton","8","33","2","36","33","0.6999999999999999556","0.2999999999999999889","CRCF","0","1","1","4","84","2","142","left","2","16","71","1"
"6.5.0","Reversal_Task","1","2021-09-27","14:39:07","fixation","Experiment_block_start","+","100","622","36","8","33","3","Acquisiton","8","33","2","36","33","0.6999999999999999556","0.2999999999999999889","CRCF","0","1","1","4","84","3","142","left","3","16","71","1.5"
"6.5.0","Reversal_Task","1","2021-09-27","14:39:07","choice","Experiment_block_start","skate.bmp","100","521","36","8","33","3","Acquisiton","8","33","2","36","33","0.6999999999999999556","0.2999999999999999889","CRCF","0","1","1","5","85","3","142","left","3","16","71","1.5"
"6.5.0","Reversal_Task","1","2021-09-27","14:39:07","fixation","Experiment_block_start","+","100","521","36","8","33","3","Acquisiton","8","33","2","36","33","0.6999999999999999556","0.2999999999999999889","CRCF","0","1","1","5","85","4","142","left","4","16","71","2"
"6.5.0","Reversal_Task","1","2021-09-27","14:39:07","choice","Experiment_block_start","skate.bmp","100","433","33","8","33","3","Acquisiton","8","33","1","33","36","0.6999999999999999556","0.2999999999999999889","CRCF","0","1","1","6","86","4","142","left","4","16","71","2"
"6.5.0","Reversal_Task","1","2021-09-27","14:39:07","fixation","Experiment_block_start","+","100","433","33","8","33","3","Acquisiton","8","33","1","33","36","0.6999999999999999556","0.2999999999999999889","CRCF","0","1","1","6","86","5","142","left","5","16","71","2.5"
"6.5.0","Reversal_Task","1","2021-09-27","14:39:07","choice","Experiment_block_start","skate.bmp","100","425","36","8","33","3","Acquisiton","8","33","2","36","33","0.6999999999999999556","0.2999999999999999889","CRCF","0","1","1","7","87","5","142","left","5","16","71","2.5"
"6.5.0","Reversal_Task","1","2021-09-27","14:39:07","fixation","Experiment_block_start","+","100","425","36","8","33","3","Acquisiton","8","33","2","36","33","0.6999999999999999556","0.2999999999999999889","CRCF","0","1","1","7","87","6","142","left","6","16","71","3"
"6.5.0","Reversal_Task","1","2021-09-27","14:39:07","choice","Experiment_block_start","skate.bmp","100","563","36","8","33","3","Acquisiton","8","33","2","36","33","0.6999999999999999556","0.2999999999999999889","CRCF","0","1","1","8","88","6","142","left","6","16","71","3"
"6.5.0","Reversal_Task","1","2021-09-27","14:39:07","fixation","Experiment_block_start","+","100","563","36","8","33","3","Acquisiton","8","33","2","36","33","0.6999999999999999556","0.2999999999999999889","CRCF","0","1","1","8","88","7","142","left","7","16","71","3.5"
"6.5.0","Reversal_Task","1","2021-09-27","14:39:07","choice","Experiment_block_start","skate.bmp","100","477","36","8","33","3","Acquisiton","8","33","2","36","33","0.6999999999999999556","0.2999999999999999889","CRCF","0","1","1","9","89","7","142","left","7","16","71","3.5"
"6.5.0","Reversal_Task","1","2021-09-27","14:39:07","fixation","Experiment_block_start","+","100","477","36","8","33","3","Acquisiton","8","33","2","36","33","0.6999999999999999556","0.2999999999999999889","CRCF","0","1","1","9","89","8","142","left","8","16","71","4"
"6.5.0","Reversal_Task","1","2021-09-27","14:39:07","choice","Experiment_block_start","skate.bmp","100","612","36","8","33","3","Acquisiton","8","33","2","36","33","0.6999999999999999556","0.2999999999999999889","CRCF","0","1","1","10","90","8","142","left","8","16","71","4"
"6.5.0","Reversal_Task","1","2021-09-27","14:39:07","fixation","Experiment_block_start","+","100","612","36","8","33","3","Acquisiton","8","33","2","36","33","0.6999999999999999556","0.2999999999999999889","CRCF","0","1","1","10","90","9","142","left","9","16","71","4.5"
"6.5.0","Reversal_Task","1","2021-09-27","14:39:07","choice","Experiment_block_start","skate.bmp","100","623","36","8","33","3","Acquisiton","8","33","2","36","33","0.6999999999999999556","0.2999999999999999889","CRIF","0","1","-1","11","91","9","142","left","9","16","71","4.5"
"6.5.0","Reversal_Task","1","2021-09-27","14:39:07","fixation","Experiment_block_start","+","100","623","36","8","33","3","Acquisiton","8","33","2","36","33","0.6999999999999999556","0.2999999999999999889","CRIF","0","1","-1","11","91","9","142","left","10","16","71","4.5"
"6.5.0","Reversal_Task","1","2021-09-27","14:39:07","choice","Experiment_block_start","skate.bmp","100","476","33","8","33","3","Acquisiton","8","33","1","33","36","0.6999999999999999556","0.2999999999999999889","CRCF","0","1","1","12","92","9","142","left","10","16","71","4.5"
"6.5.0","Reversal_Task","1","2021-09-27","14:39:07","fixation","Experiment_block_start","+","100","476","33","8","33","3","Acquisiton","8","33","1","33","36","0.6999999999999999556","0.2999999999999999889","CRCF","0","1","1","12","92","10","142","left","11","16","71","5"
"6.5.0","Reversal_Task","1","2021-09-27","14:39:07","choice","Experiment_block_start","skate.bmp","100","689","33","8","33","3","Acquisiton","8","33","1","33","36","0.6999999999999999556","0.2999999999999999889","CRCF","0","1","1","13","93","10","142","left","11","16","71","5"
"6.5.0","Reversal_Task","1","2021-09-27","14:39:07","fixation","Experiment_block_start","+","100","689","33","8","33","3","Acquisiton","8","33","1","33","36","0.6999999999999999556","0.2999999999999999889","CRCF","0","1","1","13","93","11","142","left","12","16","71","5.5"
"6.5.0","Reversal_Task","1","2021-09-27","14:39:07","choice","Experiment_block_start","skate.bmp","100","846","33","8","33","3","Acquisiton","8","33","1","33","36","0.6999999999999999556","0.2999999999999999889","CRCF","0","1","1","14","94","11","142","left","12","16","71","5.5"
"6.5.0","Reversal_Task","1","2021-09-27","14:39:07","fixation","Experiment_block_start","+","100","846","33","8","33","3","Acquisiton","8","33","1","33","36","0.6999999999999999556","0.2999999999999999889","CRCF","0","1","1","14","94","12","142","left","13","16","71","6"
"6.5.0","Reversal_Task","1","2021-09-27","14:39:07","choice","Experiment_block_start","skate.bmp","100","444","36","8","33","3","Acquisiton","8","33","2","36","33","0.6999999999999999556","0.2999999999999999889","CRIF","0","1","-1","15","95","12","142","left","13","16","71","6"
"6.5.0","Reversal_Task","1","2021-09-27","14:39:07","fixation","Experiment_block_start","+","100","444","36","8","33","3","Acquisiton","8","33","2","36","33","0.6999999999999999556","0.2999999999999999889","CRIF","0","1","-1","15","95","12","142","left","14","16","71","6"
"6.5.0","Reversal_Task","1","2021-09-27","14:39:07","choice","Experiment_block_start","skate.bmp","100","422","33","8","33","3","Acquisiton","8","33","1","33","36","0.6999999999999999556","0.2999999999999999889","CRCF","0","1","1","16","96","12","142","left","14","16","71","6"
"6.5.0","Reversal_Task","1","2021-09-27","14:39:07","fixation","Experiment_block_start","+","100","422","33","8","33","3","Acquisiton","8","33","1","33","36","0.6999999999999999556","0.2999999999999999889","CRCF","0","1","1","16","96","13","142","left","15","16","71","6.5"
"6.5.0","Reversal_Task","1","2021-09-27","14:39:07","choice","Experiment_block_start","elk.bmp","100","557","36","33","8","3","Reversal","33","8","1","33","36","0.6999999999999999556","0.2999999999999999889","IRIF","0","-1","1","17","97","13","142","left","15","16","71","6.5"
"6.5.0","Reversal_Task","1","2021-09-27","14:39:07","fixation","Experiment_block_start","+","100","557","36","33","8","3","Reversal","33","8","1","33","36","0.6999999999999999556","0.2999999999999999889","IRIF","0","-1","1","17","97","13","142","left","0","16","71","6.5"
"6.5.0","Reversal_Task","1","2021-09-27","14:39:07","choice","Experiment_block_start","elk.bmp","100","426","33","33","8","3","Reversal","33","8","2","36","33","0.6999999999999999556","0.2999999999999999889","IRIF","0","-1","1","18","98","13","142","left","0","16","71","6.5"
"6.5.0","Reversal_Task","1","2021-09-27","14:39:07","fixation","Experiment_block_start","+","100","426","33","33","8","3","Reversal","33","8","2","36","33","0.6999999999999999556","0.2999999999999999889","IRIF","0","-1","1","18","98","13","142","left","0","16","71","6.5"
"6.5.0","Reversal_Task","1","2021-09-27","14:39:07","choice","Experiment_block_start","elk.bmp","100","852","33","33","8","3","Reversal","33","8","1","33","36","0.6999999999999999556","0.2999999999999999889","CRIF","0","1","-1","19","99","13","142","left","0","16","71","6.5"
"6.5.0","Reversal_Task","1","2021-09-27","14:39:07","fixation","Experiment_block_start","+","100","852","33","33","8","3","Reversal","33","8","1","33","36","0.6999999999999999556","0.2999999999999999889","CRIF","0","1","-1","19","99","13","142","left","1","16","71","6.5"
"6.5.0","Reversal_Task","1","2021-09-27","14:39:07","choice","Experiment_block_start","elk.bmp","100","408","33","33","8","3","Reversal","33","8","1","33","36","0.6999999999999999556","0.2999999999999999889","CRIF","0","1","-1","20","100","13","142","left","1","16","71","6.5"
"6.5.0","Reversal_Task","1","2021-09-27","14:39:07","fixation","Experiment_block_start","+","100","408","33","33","8","3","Reversal","33","8","1","33","36","0.6999999999999999556","0.2999999999999999889","CRIF","0","1","-1","20","100","13","142","left","2","16","71","6.5"
"6.5.0","Reversal_Task","1","2021-09-27","14:39:07","choice","Experiment_block_start","elk.bmp","100","454","33","33","8","3","Reversal","33","8","2","36","33","0.6999999999999999556","0.2999999999999999889","IRCF","0","-1","-1","21","101","13","142","left","2","16","71","6.5"
"6.5.0","Reversal_Task","1","2021-09-27","14:39:07","fixation","Experiment_block_start","+","100","454","33","33","8","3","Reversal","33","8","2","36","33","0.6999999999999999556","0.2999999999999999889","IRCF","0","-1","-1","21","101","14","142","left","0","16","71","7"
"6.5.0","Reversal_Task","1","2021-09-27","14:39:07","choice","Experiment_block_start","elk.bmp","100","401","36","33","8","3","Reversal","33","8","1","33","36","0.6999999999999999556","0.2999999999999999889","IRCF","0","-1","-1","22","102","14","142","left","0","16","71","7"
"6.5.0","Reversal_Task","1","2021-09-27","14:39:07","fixation","Experiment_block_start","+","100","401","36","33","8","3","Reversal","33","8","1","33","36","0.6999999999999999556","0.2999999999999999889","IRCF","0","-1","-1","22","102","15","142","left","0","16","71","7.5"
"6.5.0","Reversal_Task","1","2021-09-27","14:39:07","choice","Experiment_block_start","elk.bmp","100","552","36","33","8","3","Reversal","33","8","1","33","36","0.6999999999999999556","0.2999999999999999889","IRIF","0","-1","1","23","103","15","142","left","0","16","71","7.5"
"6.5.0","Reversal_Task","1","2021-09-27","14:39:07","fixation","Experiment_block_start","+","100","552","36","33","8","3","Reversal","33","8","1","33","36","0.6999999999999999556","0.2999999999999999889","IRIF","0","-1","1","23","103","15","142","left","0","16","71","7.5"
"6.5.0","Reversal_Task","1","2021-09-27","14:39:07","choice","Experiment_block_start","elk.bmp","100","376","36","33","8","3","Reversal","33","8","1","33","36","0.6999999999999999556","0.2999999999999999889","IRIF","0","-1","1","24","104","15","142","left","0","16","71","7.5"
"6.5.0","Reversal_Task","1","2021-09-27","14:39:07","fixation","Experiment_block_start","+","100","376","36","33","8","3","Reversal","33","8","1","33","36","0.6999999999999999556","0.2999999999999999889","IRIF","0","-1","1","24","104","15","142","left","0","16","71","7.5"
"6.5.0","Reversal_Task","1","2021-09-27","14:39:07","choice","Experiment_block_start","elk.bmp","100","539","33","33","8","3","Reversal","33","8","2","36","33","0.6999999999999999556","0.2999999999999999889","IRIF","0","-1","1","25","105","15","142","left","0","16","71","7.5"
"6.5.0","Reversal_Task","1","2021-09-27","14:39:07","fixation","Experiment_block_start","+","100","539","33","33","8","3","Reversal","33","8","2","36","33","0.6999999999999999556","0.2999999999999999889","IRIF","0","-1","1","25","105","15","142","left","0","16","71","7.5"
"6.5.0","Reversal_Task","1","2021-09-27","14:39:07","choice","Experiment_block_start","elk.bmp","100","500","36","33","8","3","Reversal","33","8","1","33","36","0.6999999999999999556","0.2999999999999999889","IRIF","0","-1","1","26","106","15","142","left","0","16","71","7.5"
"6.5.0","Reversal_Task","1","2021-09-27","14:39:07","fixation","Experiment_block_start","+","100","500","36","33","8","3","Reversal","33","8","1","33","36","0.6999999999999999556","0.2999999999999999889","IRIF","0","-1","1","26","106","15","142","left","0","16","71","7.5"
"6.5.0","Reversal_Task","1","2021-09-27","14:39:07","choice","Experiment_block_start","elk.bmp","100","479","33","33","8","3","Reversal","33","8","1","33","36","0.6999999999999999556","0.2999999999999999889","CRIF","0","1","-1","27","107","15","142","left","0","16","71","7.5"
"6.5.0","Reversal_Task","1","2021-09-27","14:39:07","fixation","Experiment_block_start","+","100","479","33","33","8","3","Reversal","33","8","1","33","36","0.6999999999999999556","0.2999999999999999889","CRIF","0","1","-1","27","107","15","142","left","1","16","71","7.5"
"6.5.0","Reversal_Task","1","2021-09-27","14:39:07","choice","Experiment_block_start","elk.bmp","100","374","36","33","8","3","Reversal","33","8","2","36","33","0.6999999999999999556","0.2999999999999999889","CRIF","0","1","-1","28","108","15","142","left","1","16","71","7.5"
"6.5.0","Reversal_Task","1","2021-09-27","14:39:07","fixation","Experiment_block_start","+","100","374","36","33","8","3","Reversal","33","8","2","36","33","0.6999999999999999556","0.2999999999999999889","CRIF","0","1","-1","28","108","15","142","left","2","16","71","7.5"
"6.5.0","Reversal_Task","1","2021-09-27","14:39:07","choice","Experiment_block_start","elk.bmp","100","559","36","33","8","3","Reversal","33","8","2","36","33","0.6999999999999999556","0.2999999999999999889","CRCF","0","1","1","29","109","15","142","left","2","16","71","7.5"
"6.5.0","Reversal_Task","1","2021-09-27","14:39:07","fixation","Experiment_block_start","+","100","559","36","33","8","3","Reversal","33","8","2","36","33","0.6999999999999999556","0.2999999999999999889","CRCF","0","1","1","29","109","16","142","left","3","16","71","8"
"6.5.0","Reversal_Task","1","2021-09-27","14:39:07","choice","Experiment_block_start","elk.bmp","100","441","33","33","8","3","Reversal","33","8","1","33","36","0.6999999999999999556","0.2999999999999999889","CRIF","0","1","-1","30","110","16","142","left","3","16","71","8"
"6.5.0","Reversal_Task","1","2021-09-27","14:39:07","fixation","Experiment_block_start","+","100","441","33","33","8","3","Reversal","33","8","1","33","36","0.6999999999999999556","0.2999999999999999889","CRIF","0","1","-1","30","110","16","142","left","4","16","71","8"
"6.5.0","Reversal_Task","1","2021-09-27","14:39:07","choice","Experiment_block_start","elk.bmp","100","396","36","33","8","3","Reversal","33","8","2","36","33","0.6999999999999999556","0.2999999999999999889","CRCF","0","1","1","31","111","16","142","left","4","16","71","8"
"6.5.0","Reversal_Task","1","2021-09-27","14:39:07","fixation","Experiment_block_start","+","100","396","36","33","8","3","Reversal","33","8","2","36","33","0.6999999999999999556","0.2999999999999999889","CRCF","0","1","1","31","111","17","142","left","5","16","71","8.5"
"6.5.0","Reversal_Task","1","2021-09-27","14:39:07","choice","Experiment_block_start","elk.bmp","100","436","36","33","8","3","Reversal","33","8","2","36","33","0.6999999999999999556","0.2999999999999999889","CRIF","0","1","-1","32","112","17","142","left","5","16","71","8.5"
"6.5.0","Reversal_Task","1","2021-09-27","14:39:07","fixation","Experiment_block_start","+","100","436","36","33","8","3","Reversal","33","8","2","36","33","0.6999999999999999556","0.2999999999999999889","CRIF","0","1","-1","32","112","17","142","left","6","16","71","8.5"
"6.5.0","Reversal_Task","1","2021-09-27","14:39:07","choice","Experiment_block_start","elk.bmp","100","429","33","33","8","3","Reversal","33","8","1","33","36","0.6999999999999999556","0.2999999999999999889","CRCF","0","1","1","33","113","17","142","left","6","16","71","8.5"
"6.5.0","Reversal_Task","1","2021-09-27","14:39:07","fixation","Experiment_block_start","+","100","429","33","33","8","3","Reversal","33","8","1","33","36","0.6999999999999999556","0.2999999999999999889","CRCF","0","1","1","33","113","18","142","left","7","16","71","9"
"6.5.0","Reversal_Task","1","2021-09-27","14:39:07","choice","Experiment_block_start","elk.bmp","100","381","36","33","8","3","Reversal","33","8","2","36","33","0.6999999999999999556","0.2999999999999999889","CRIF","0","1","-1","34","114","18","142","left","7","16","71","9"
"6.5.0","Reversal_Task","1","2021-09-27","14:39:07","fixation","Experiment_block_start","+","100","381","36","33","8","3","Reversal","33","8","2","36","33","0.6999999999999999556","0.2999999999999999889","CRIF","0","1","-1","34","114","18","142","left","8","16","71","9"
"6.5.0","Reversal_Task","1","2021-09-27","14:39:07","choice","Experiment_block_start","elk.bmp","100","387","33","33","8","3","Reversal","33","8","1","33","36","0.6999999999999999556","0.2999999999999999889","CRCF","0","1","1","35","115","18","142","left","8","16","71","9"
"6.5.0","Reversal_Task","1","2021-09-27","14:39:07","fixation","Experiment_block_start","+","100","387","33","33","8","3","Reversal","33","8","1","33","36","0.6999999999999999556","0.2999999999999999889","CRCF","0","1","1","35","115","19","142","left","9","16","71","9.5"
"6.5.0","Reversal_Task","1","2021-09-27","14:39:07","choice","Experiment_block_start","elk.bmp","100","397","33","33","8","3","Reversal","33","8","1","33","36","0.6999999999999999556","0.2999999999999999889","CRIF","0","1","-1","36","116","19","142","left","9","16","71","9.5"
"6.5.0","Reversal_Task","1","2021-09-27","14:39:07","fixation","Experiment_block_start","+","100","397","33","33","8","3","Reversal","33","8","1","33","36","0.6999999999999999556","0.2999999999999999889","CRIF","0","1","-1","36","116","19","142","left","10","16","71","9.5"
"6.5.0","Reversal_Task","1","2021-09-27","14:39:07","choice","Experiment_block_start","elk.bmp","100","352","33","33","8","3","Reversal","33","8","1","33","36","0.6999999999999999556","0.2999999999999999889","CRCF","0","1","1","37","117","19","142","left","10","16","71","9.5"
"6.5.0","Reversal_Task","1","2021-09-27","14:39:07","fixation","Experiment_block_start","+","100","352","33","33","8","3","Reversal","33","8","1","33","36","0.6999999999999999556","0.2999999999999999889","CRCF","0","1","1","37","117","20","142","left","11","16","71","10"
"6.5.0","Reversal_Task","1","2021-09-27","14:39:07","choice","Experiment_block_start","elk.bmp","100","380","33","33","8","3","Reversal","33","8","1","33","36","0.6999999999999999556","0.2999999999999999889","CRCF","0","1","1","38","118","20","142","left","11","16","71","10"
"6.5.0","Reversal_Task","1","2021-09-27","14:39:07","fixation","Experiment_block_start","+","100","380","33","33","8","3","Reversal","33","8","1","33","36","0.6999999999999999556","0.2999999999999999889","CRCF","0","1","1","38","118","21","142","left","12","16","71","10.5"
"6.5.0","Reversal_Task","1","2021-09-27","14:39:07","choice","Experiment_block_start","elk.bmp","100","693","36","33","8","3","Reversal","33","8","2","36","33","0.6999999999999999556","0.2999999999999999889","CRCF","0","1","1","39","119","21","142","left","12","16","71","10.5"
"6.5.0","Reversal_Task","1","2021-09-27","14:39:07","fixation","Experiment_block_start","+","100","693","36","33","8","3","Reversal","33","8","2","36","33","0.6999999999999999556","0.2999999999999999889","CRCF","0","1","1","39","119","22","142","left","13","16","71","11"
"6.5.0","Reversal_Task","1","2021-09-27","14:39:07","choice","Experiment_block_start","elk.bmp","100","350","33","33","8","3","Reversal","33","8","1","33","36","0.6999999999999999556","0.2999999999999999889","CRCF","0","1","1","40","120","22","142","left","13","16","71","11"
"6.5.0","Reversal_Task","1","2021-09-27","14:39:07","fixation","Experiment_block_start","+","100","350","33","33","8","4","Reversal","33","8","1","33","36","0.6999999999999999556","0.2999999999999999889","CRCF","0","1","1","40","120","23","142","left","14","16","71","11.5"
"6.5.0","Reversal_Task","1","2021-09-27","14:39:07","reset_trial","Experiment_block_start","Press SPACE to continue","100","350","33","33","8","4","Reversal","33","8","1","33","36","0.6999999999999999556","0.2999999999999999889","CRCF","0","1","1","0","120","0","173","left","0","16","86.5","0"
"6.5.0","Reversal_Task","1","2021-09-27","14:39:07","choice","Experiment_block_start","dandelion.bmp","100","1518","33","1","9","4","Acquisiton","1","9","1","33","36","0.6999999999999999556","0.2999999999999999889","CRCF","0","1","1","1","121","0","204","left","0","16","102","0"
"6.5.0","Reversal_Task","1","2021-09-27","14:39:07","fixation","Experiment_block_start","+","100","1518","33","1","9","4","Acquisiton","1","9","1","33","36","0.6999999999999999556","0.2999999999999999889","CRCF","0","1","1","1","121","1","204","left","1","16","102","0.5"
"6.5.0","Reversal_Task","1","2021-09-27","14:39:07","choice","Experiment_block_start","dandelion.bmp","100","599","36","1","9","4","Acquisiton","1","9","2","36","33","0.6999999999999999556","0.2999999999999999889","CRIF","0","1","-1","2","122","1","204","left","1","16","102","0.5"
"6.5.0","Reversal_Task","1","2021-09-27","14:39:07","fixation","Experiment_block_start","+","100","599","36","1","9","4","Acquisiton","1","9","2","36","33","0.6999999999999999556","0.2999999999999999889","CRIF","0","1","-1","2","122","1","204","left","2","16","102","0.5"
"6.5.0","Reversal_Task","1","2021-09-27","14:39:07","choice","Experiment_block_start","dandelion.bmp","100","628","36","1","9","4","Acquisiton","1","9","2","36","33","0.6999999999999999556","0.2999999999999999889","CRIF","0","1","-1","3","123","1","204","left","2","16","102","0.5"
"6.5.0","Reversal_Task","1","2021-09-27","14:39:07","fixation","Experiment_block_start","+","100","628","36","1","9","4","Acquisiton","1","9","2","36","33","0.6999999999999999556","0.2999999999999999889","CRIF","0","1","-1","3","123","1","204","left","3","16","102","0.5"
"6.5.0","Reversal_Task","1","2021-09-27","14:39:07","choice","Experiment_block_start","dandelion.bmp","100","459","33","1","9","4","Acquisiton","1","9","1","33","36","0.6999999999999999556","0.2999999999999999889","CRCF","0","1","1","4","124","1","204","left","3","16","102","0.5"
"6.5.0","Reversal_Task","1","2021-09-27","14:39:07","fixation","Experiment_block_start","+","100","459","33","1","9","4","Acquisiton","1","9","1","33","36","0.6999999999999999556","0.2999999999999999889","CRCF","0","1","1","4","124","2","204","left","4","16","102","1"
"6.5.0","Reversal_Task","1","2021-09-27","14:39:07","choice","Experiment_block_start","dandelion.bmp","100","347","36","1","9","4","Acquisiton","1","9","2","36","33","0.6999999999999999556","0.2999999999999999889","CRIF","0","1","-1","5","125","2","204","left","4","16","102","1"
"6.5.0","Reversal_Task","1","2021-09-27","14:39:07","fixation","Experiment_block_start","+","100","347","36","1","9","4","Acquisiton","1","9","2","36","33","0.6999999999999999556","0.2999999999999999889","CRIF","0","1","-1","5","125","2","204","left","5","16","102","1"
"6.5.0","Reversal_Task","1","2021-09-27","14:39:07","choice","Experiment_block_start","dandelion.bmp","100","388","33","1","9","4","Acquisiton","1","9","1","33","36","0.6999999999999999556","0.2999999999999999889","CRIF","0","1","-1","6","126","2","204","left","5","16","102","1"
"6.5.0","Reversal_Task","1","2021-09-27","14:39:07","fixation","Experiment_block_start","+","100","388","33","1","9","4","Acquisiton","1","9","1","33","36","0.6999999999999999556","0.2999999999999999889","CRIF","0","1","-1","6","126","2","204","left","6","16","102","1"
"6.5.0","Reversal_Task","1","2021-09-27","14:39:07","choice","Experiment_block_start","dandelion.bmp","100","372","36","1","9","4","Acquisiton","1","9","2","36","33","0.6999999999999999556","0.2999999999999999889","CRIF","0","1","-1","7","127","2","204","left","6","16","102","1"
"6.5.0","Reversal_Task","1","2021-09-27","14:39:07","fixation","Experiment_block_start","+","100","372","36","1","9","4","Acquisiton","1","9","2","36","33","0.6999999999999999556","0.2999999999999999889","CRIF","0","1","-1","7","127","2","204","left","7","16","102","1"
"6.5.0","Reversal_Task","1","2021-09-27","14:39:07","choice","Experiment_block_start","dandelion.bmp","100","396","33","1","9","4","Acquisiton","1","9","1","33","36","0.6999999999999999556","0.2999999999999999889","CRIF","0","1","-1","8","128","2","204","left","7","16","102","1"
"6.5.0","Reversal_Task","1","2021-09-27","14:39:07","fixation","Experiment_block_start","+","100","396","33","1","9","4","Acquisiton","1","9","1","33","36","0.6999999999999999556","0.2999999999999999889","CRIF","0","1","-1","8","128","2","204","left","8","16","102","1"
"6.5.0","Reversal_Task","1","2021-09-27","14:39:07","choice","Experiment_block_start","dandelion.bmp","100","373","36","1","9","4","Acquisiton","1","9","2","36","33","0.6999999999999999556","0.2999999999999999889","CRCF","0","1","1","9","129","2","204","left","8","16","102","1"
"6.5.0","Reversal_Task","1","2021-09-27","14:39:07","fixation","Experiment_block_start","+","100","373","36","1","9","4","Acquisiton","1","9","2","36","33","0.6999999999999999556","0.2999999999999999889","CRCF","0","1","1","9","129","3","204","left","9","16","102","1.5"
"6.5.0","Reversal_Task","1","2021-09-27","14:39:07","choice","Experiment_block_start","dandelion.bmp","100","387","36","1","9","4","Acquisiton","1","9","2","36","33","0.6999999999999999556","0.2999999999999999889","CRCF","0","1","1","10","130","3","204","left","9","16","102","1.5"
"6.5.0","Reversal_Task","1","2021-09-27","14:39:07","fixation","Experiment_block_start","+","100","387","36","1","9","4","Acquisiton","1","9","2","36","33","0.6999999999999999556","0.2999999999999999889","CRCF","0","1","1","10","130","4","204","left","10","16","102","2"
"6.5.0","Reversal_Task","1","2021-09-27","14:39:07","choice","Experiment_block_start","dandelion.bmp","100","426","33","1","9","4","Acquisiton","1","9","1","33","36","0.6999999999999999556","0.2999999999999999889","CRCF","0","1","1","11","131","4","204","left","10","16","102","2"
"6.5.0","Reversal_Task","1","2021-09-27","14:39:07","fixation","Experiment_block_start","+","100","426","33","1","9","4","Acquisiton","1","9","1","33","36","0.6999999999999999556","0.2999999999999999889","CRCF","0","1","1","11","131","5","204","left","11","16","102","2.5"
"6.5.0","Reversal_Task","1","2021-09-27","14:39:07","choice","Experiment_block_start","dandelion.bmp","100","579","33","1","9","4","Acquisiton","1","9","1","33","36","0.6999999999999999556","0.2999999999999999889","CRCF","0","1","1","12","132","5","204","left","11","16","102","2.5"
"6.5.0","Reversal_Task","1","2021-09-27","14:39:07","fixation","Experiment_block_start","+","100","579","33","1","9","4","Acquisiton","1","9","1","33","36","0.6999999999999999556","0.2999999999999999889","CRCF","0","1","1","12","132","6","204","left","12","16","102","3"
"6.5.0","Reversal_Task","1","2021-09-27","14:39:07","choice","Experiment_block_start","dandelion.bmp","100","363","33","1","9","4","Acquisiton","1","9","1","33","36","0.6999999999999999556","0.2999999999999999889","CRIF","0","1","-1","13","133","6","204","left","12","16","102","3"
"6.5.0","Reversal_Task","1","2021-09-27","14:39:07","fixation","Experiment_block_start","+","100","363","33","1","9","4","Acquisiton","1","9","1","33","36","0.6999999999999999556","0.2999999999999999889","CRIF","0","1","-1","13","133","6","204","left","13","16","102","3"
"6.5.0","Reversal_Task","1","2021-09-27","14:39:07","choice","Experiment_block_start","dandelion.bmp","100","360","36","1","9","4","Acquisiton","1","9","2","36","33","0.6999999999999999556","0.2999999999999999889","CRCF","0","1","1","14","134","6","204","left","13","16","102","3"
"6.5.0","Reversal_Task","1","2021-09-27","14:39:07","fixation","Experiment_block_start","+","100","360","36","1","9","4","Acquisiton","1","9","2","36","33","0.6999999999999999556","0.2999999999999999889","CRCF","0","1","1","14","134","7","204","left","14","16","102","3.5"
"6.5.0","Reversal_Task","1","2021-09-27","14:39:07","choice","Experiment_block_start","dandelion.bmp","100","415","36","1","9","4","Acquisiton","1","9","2","36","33","0.6999999999999999556","0.2999999999999999889","CRIF","0","1","-1","15","135","7","204","left","14","16","102","3.5"
"6.5.0","Reversal_Task","1","2021-09-27","14:39:07","fixation","Experiment_block_start","+","100","415","36","1","9","4","Acquisiton","1","9","2","36","33","0.6999999999999999556","0.2999999999999999889","CRIF","0","1","-1","15","135","7","204","left","15","16","102","3.5"
"6.5.0","Reversal_Task","1","2021-09-27","14:39:07","choice","Experiment_block_start","dandelion.bmp","100","334","36","1","9","4","Acquisiton","1","9","2","36","33","0.6999999999999999556","0.2999999999999999889","CRCF","0","1","1","16","136","7","204","left","15","16","102","3.5"
"6.5.0","Reversal_Task","1","2021-09-27","14:39:07","fixation","Experiment_block_start","+","100","334","36","1","9","4","Acquisiton","1","9","2","36","33","0.6999999999999999556","0.2999999999999999889","CRCF","0","1","1","16","136","8","204","left","16","16","102","4"
"6.5.0","Reversal_Task","1","2021-09-27","14:39:07","choice","Experiment_block_start","binocular.bmp","100","340","36","9","1","4","Reversal","9","1","1","33","36","0.6999999999999999556","0.2999999999999999889","IRIF","0","-1","1","17","137","8","204","left","16","16","102","4"
"6.5.0","Reversal_Task","1","2021-09-27","14:39:07","fixation","Experiment_block_start","+","100","340","36","9","1","4","Reversal","9","1","1","33","36","0.6999999999999999556","0.2999999999999999889","IRIF","0","-1","1","17","137","8","204","left","0","16","102","4"
"6.5.0","Reversal_Task","1","2021-09-27","14:39:07","choice","Experiment_block_start","binocular.bmp","100","336","36","9","1","4","Reversal","9","1","1","33","36","0.6999999999999999556","0.2999999999999999889","IRIF","0","-1","1","18","138","8","204","left","0","16","102","4"
"6.5.0","Reversal_Task","1","2021-09-27","14:39:07","fixation","Experiment_block_start","+","100","336","36","9","1","4","Reversal","9","1","1","33","36","0.6999999999999999556","0.2999999999999999889","IRIF","0","-1","1","18","138","8","204","left","0","16","102","4"
"6.5.0","Reversal_Task","1","2021-09-27","14:39:07","choice","Experiment_block_start","binocular.bmp","100","434","33","9","1","4","Reversal","9","1","2","36","33","0.6999999999999999556","0.2999999999999999889","IRIF","0","-1","1","19","139","8","204","left","0","16","102","4"
"6.5.0","Reversal_Task","1","2021-09-27","14:39:07","fixation","Experiment_block_start","+","100","434","33","9","1","4","Reversal","9","1","2","36","33","0.6999999999999999556","0.2999999999999999889","IRIF","0","-1","1","19","139","8","204","left","0","16","102","4"
"6.5.0","Reversal_Task","1","2021-09-27","14:39:07","choice","Experiment_block_start","binocular.bmp","100","485","36","9","1","4","Reversal","9","1","1","33","36","0.6999999999999999556","0.2999999999999999889","IRIF","0","-1","1","20","140","8","204","left","0","16","102","4"
"6.5.0","Reversal_Task","1","2021-09-27","14:39:07","fixation","Experiment_block_start","+","100","485","36","9","1","4","Reversal","9","1","1","33","36","0.6999999999999999556","0.2999999999999999889","IRIF","0","-1","1","20","140","8","204","left","0","16","102","4"
"6.5.0","Reversal_Task","1","2021-09-27","14:39:07","choice","Experiment_block_start","binocular.bmp","100","342","36","9","1","4","Reversal","9","1","1","33","36","0.6999999999999999556","0.2999999999999999889","IRCF","0","-1","-1","21","141","8","204","left","0","16","102","4"
"6.5.0","Reversal_Task","1","2021-09-27","14:39:07","fixation","Experiment_block_start","+","100","342","36","9","1","4","Reversal","9","1","1","33","36","0.6999999999999999556","0.2999999999999999889","IRCF","0","-1","-1","21","141","9","204","left","0","16","102","4.5"
"6.5.0","Reversal_Task","1","2021-09-27","14:39:07","choice","Experiment_block_start","binocular.bmp","100","352","36","9","1","4","Reversal","9","1","1","33","36","0.6999999999999999556","0.2999999999999999889","IRCF","0","-1","-1","22","142","9","204","left","0","16","102","4.5"
"6.5.0","Reversal_Task","1","2021-09-27","14:39:07","fixation","Experiment_block_start","+","100","352","36","9","1","4","Reversal","9","1","1","33","36","0.6999999999999999556","0.2999999999999999889","IRCF","0","-1","-1","22","142","10","204","left","0","16","102","5"
"6.5.0","Reversal_Task","1","2021-09-27","14:39:07","choice","Experiment_block_start","binocular.bmp","100","345","36","9","1","4","Reversal","9","1","1","33","36","0.6999999999999999556","0.2999999999999999889","IRIF","0","-1","1","23","143","10","204","left","0","16","102","5"
"6.5.0","Reversal_Task","1","2021-09-27","14:39:07","fixation","Experiment_block_start","+","100","345","36","9","1","4","Reversal","9","1","1","33","36","0.6999999999999999556","0.2999999999999999889","IRIF","0","-1","1","23","143","10","204","left","0","16","102","5"
"6.5.0","Reversal_Task","1","2021-09-27","14:39:07","choice","Experiment_block_start","binocular.bmp","100","347","36","9","1","4","Reversal","9","1","1","33","36","0.6999999999999999556","0.2999999999999999889","IRIF","0","-1","1","24","144","10","204","left","0","16","102","5"
"6.5.0","Reversal_Task","1","2021-09-27","14:39:07","fixation","Experiment_block_start","+","100","347","36","9","1","4","Reversal","9","1","1","33","36","0.6999999999999999556","0.2999999999999999889","IRIF","0","-1","1","24","144","10","204","left","0","16","102","5"
"6.5.0","Reversal_Task","1","2021-09-27","14:39:07","choice","Experiment_block_start","binocular.bmp","100","323","36","9","1","4","Reversal","9","1","1","33","36","0.6999999999999999556","0.2999999999999999889","IRIF","0","-1","1","25","145","10","204","left","0","16","102","5"
"6.5.0","Reversal_Task","1","2021-09-27","14:39:07","fixation","Experiment_block_start","+","100","323","36","9","1","4","Reversal","9","1","1","33","36","0.6999999999999999556","0.2999999999999999889","IRIF","0","-1","1","25","145","10","204","left","0","16","102","5"
"6.5.0","Reversal_Task","1","2021-09-27","14:39:07","choice","Experiment_block_start","binocular.bmp","100","315","36","9","1","4","Reversal","9","1","1","33","36","0.6999999999999999556","0.2999999999999999889","IRIF","0","-1","1","26","146","10","204","left","0","16","102","5"
"6.5.0","Reversal_Task","1","2021-09-27","14:39:07","fixation","Experiment_block_start","+","100","315","36","9","1","4","Reversal","9","1","1","33","36","0.6999999999999999556","0.2999999999999999889","IRIF","0","-1","1","26","146","10","204","left","0","16","102","5"
"6.5.0","Reversal_Task","1","2021-09-27","14:39:07","choice","Experiment_block_start","binocular.bmp","100","621","36","9","1","4","Reversal","9","1","2","36","33","0.6999999999999999556","0.2999999999999999889","CRCF","0","1","1","27","147","10","204","left","0","16","102","5"
"6.5.0","Reversal_Task","1","2021-09-27","14:39:07","fixation","Experiment_block_start","+","100","621","36","9","1","4","Reversal","9","1","2","36","33","0.6999999999999999556","0.2999999999999999889","CRCF","0","1","1","27","147","11","204","left","1","16","102","5.5"
"6.5.0","Reversal_Task","1","2021-09-27","14:39:07","choice","Experiment_block_start","binocular.bmp","100","436","33","9","1","4","Reversal","9","1","1","33","36","0.6999999999999999556","0.2999999999999999889","CRIF","0","1","-1","28","148","11","204","left","1","16","102","5.5"
"6.5.0","Reversal_Task","1","2021-09-27","14:39:07","fixation","Experiment_block_start","+","100","436","33","9","1","4","Reversal","9","1","1","33","36","0.6999999999999999556","0.2999999999999999889","CRIF","0","1","-1","28","148","11","204","left","2","16","102","5.5"
"6.5.0","Reversal_Task","1","2021-09-27","14:39:07","choice","Experiment_block_start","binocular.bmp","100","401","33","9","1","4","Reversal","9","1","1","33","36","0.6999999999999999556","0.2999999999999999889","CRCF","0","1","1","29","149","11","204","left","2","16","102","5.5"
"6.5.0","Reversal_Task","1","2021-09-27","14:39:07","fixation","Experiment_block_start","+","100","401","33","9","1","4","Reversal","9","1","1","33","36","0.6999999999999999556","0.2999999999999999889","CRCF","0","1","1","29","149","12","204","left","3","16","102","6"
"6.5.0","Reversal_Task","1","2021-09-27","14:39:07","choice","Experiment_block_start","binocular.bmp","100","347","36","9","1","4","Reversal","9","1","2","36","33","0.6999999999999999556","0.2999999999999999889","CRCF","0","1","1","30","150","12","204","left","3","16","102","6"
"6.5.0","Reversal_Task","1","2021-09-27","14:39:07","fixation","Experiment_block_start","+","100","347","36","9","1","4","Reversal","9","1","2","36","33","0.6999999999999999556","0.2999999999999999889","CRCF","0","1","1","30","150","13","204","left","4","16","102","6.5"
"6.5.0","Reversal_Task","1","2021-09-27","14:39:07","choice","Experiment_block_start","binocular.bmp","100","461","36","9","1","4","Reversal","9","1","2","36","33","0.6999999999999999556","0.2999999999999999889","CRCF","0","1","1","31","151","13","204","left","4","16","102","6.5"
"6.5.0","Reversal_Task","1","2021-09-27","14:39:07","fixation","Experiment_block_start","+","100","461","36","9","1","4","Reversal","9","1","2","36","33","0.6999999999999999556","0.2999999999999999889","CRCF","0","1","1","31","151","14","204","left","5","16","102","7"
"6.5.0","Reversal_Task","1","2021-09-27","14:39:07","choice","Experiment_block_start","binocular.bmp","100","728","33","9","1","4","Reversal","9","1","1","33","36","0.6999999999999999556","0.2999999999999999889","CRCF","0","1","1","32","152","14","204","left","5","16","102","7"
"6.5.0","Reversal_Task","1","2021-09-27","14:39:07","fixation","Experiment_block_start","+","100","728","33","9","1","4","Reversal","9","1","1","33","36","0.6999999999999999556","0.2999999999999999889","CRCF","0","1","1","32","152","15","204","left","6","16","102","7.5"
"6.5.0","Reversal_Task","1","2021-09-27","14:39:07","choice","Experiment_block_start","binocular.bmp","100","543","36","9","1","4","Reversal","9","1","2","36","33","0.6999999999999999556","0.2999999999999999889","CRCF","0","1","1","33","153","15","204","left","6","16","102","7.5"
"6.5.0","Reversal_Task","1","2021-09-27","14:39:07","fixation","Experiment_block_start","+","100","543","36","9","1","4","Reversal","9","1","2","36","33","0.6999999999999999556","0.2999999999999999889","CRCF","0","1","1","33","153","16","204","left","7","16","102","8"
"6.5.0","Reversal_Task","1","2021-09-27","14:39:07","choice","Experiment_block_start","binocular.bmp","100","479","36","9","1","4","Reversal","9","1","2","36","33","0.6999999999999999556","0.2999999999999999889","CRCF","0","1","1","34","154","16","204","left","7","16","102","8"
"6.5.0","Reversal_Task","1","2021-09-27","14:39:07","fixation","Experiment_block_start","+","100","479","36","9","1","4","Reversal","9","1","2","36","33","0.6999999999999999556","0.2999999999999999889","CRCF","0","1","1","34","154","17","204","left","8","16","102","8.5"
"6.5.0","Reversal_Task","1","2021-09-27","14:39:07","choice","Experiment_block_start","binocular.bmp","100","419","36","9","1","4","Reversal","9","1","2","36","33","0.6999999999999999556","0.2999999999999999889","CRCF","0","1","1","35","155","17","204","left","8","16","102","8.5"
"6.5.0","Reversal_Task","1","2021-09-27","14:39:07","fixation","Experiment_block_start","+","100","419","36","9","1","4","Reversal","9","1","2","36","33","0.6999999999999999556","0.2999999999999999889","CRCF","0","1","1","35","155","18","204","left","9","16","102","9"
"6.5.0","Reversal_Task","1","2021-09-27","14:39:07","choice","Experiment_block_start","binocular.bmp","100","711","33","9","1","4","Reversal","9","1","1","33","36","0.6999999999999999556","0.2999999999999999889","CRCF","0","1","1","36","156","18","204","left","9","16","102","9"
"6.5.0","Reversal_Task","1","2021-09-27","14:39:07","fixation","Experiment_block_start","+","100","711","33","9","1","4","Reversal","9","1","1","33","36","0.6999999999999999556","0.2999999999999999889","CRCF","0","1","1","36","156","19","204","left","10","16","102","9.5"
"6.5.0","Reversal_Task","1","2021-09-27","14:39:07","choice","Experiment_block_start","binocular.bmp","100","642","33","9","1","4","Reversal","9","1","1","33","36","0.6999999999999999556","0.2999999999999999889","CRCF","0","1","1","37","157","19","204","left","10","16","102","9.5"
"6.5.0","Reversal_Task","1","2021-09-27","14:39:07","fixation","Experiment_block_start","+","100","642","33","9","1","4","Reversal","9","1","1","33","36","0.6999999999999999556","0.2999999999999999889","CRCF","0","1","1","37","157","20","204","left","11","16","102","10"
"6.5.0","Reversal_Task","1","2021-09-27","14:39:07","choice","Experiment_block_start","binocular.bmp","100","577","36","9","1","4","Reversal","9","1","2","36","33","0.6999999999999999556","0.2999999999999999889","CRCF","0","1","1","38","158","20","204","left","11","16","102","10"
"6.5.0","Reversal_Task","1","2021-09-27","14:39:07","fixation","Experiment_block_start","+","100","577","36","9","1","4","Reversal","9","1","2","36","33","0.6999999999999999556","0.2999999999999999889","CRCF","0","1","1","38","158","21","204","left","12","16","102","10.5"
"6.5.0","Reversal_Task","1","2021-09-27","14:39:07","choice","Experiment_block_start","binocular.bmp","100","497","33","9","1","4","Reversal","9","1","1","33","36","0.6999999999999999556","0.2999999999999999889","CRIF","0","1","-1","39","159","21","204","left","12","16","102","10.5"
"6.5.0","Reversal_Task","1","2021-09-27","14:39:07","fixation","Experiment_block_start","+","100","497","33","9","1","4","Reversal","9","1","1","33","36","0.6999999999999999556","0.2999999999999999889","CRIF","0","1","-1","39","159","21","204","left","13","16","102","10.5"
"6.5.0","Reversal_Task","1","2021-09-27","14:39:07","choice","Experiment_block_start","binocular.bmp","100","427","33","9","1","4","Reversal","9","1","1","33","36","0.6999999999999999556","0.2999999999999999889","CRCF","0","1","1","40","160","21","204","left","13","16","102","10.5"
"6.5.0","Reversal_Task","1","2021-09-27","14:39:07","fixation","Experiment_block_start","+","100","427","33","9","1","5","Reversal","9","1","1","33","36","0.6999999999999999556","0.2999999999999999889","CRCF","0","1","1","40","160","22","204","left","14","16","102","11"
"6.5.0","Reversal_Task","1","2021-09-27","14:39:07","reset_trial","Experiment_block_start","Press SPACE to continue","100","427","33","9","1","5","Reversal","9","1","1","33","36","0.6999999999999999556","0.2999999999999999889","CRCF","0","1","1","0","160","0","234","left","0","17","117","0"
"6.5.0","Reversal_Task","1","2021-09-27","14:39:07","choice","Experiment_block_start","cactus.bmp","100","985","33","18","28","5","Acquisiton","18","28","1","33","36","0.6999999999999999556","0.2999999999999999889","CRCF","0","1","1","1","161","0","264","left","0","17","132","0"
"6.5.0","Reversal_Task","1","2021-09-27","14:39:07","fixation","Experiment_block_start","+","100","985","33","18","28","5","Acquisiton","18","28","1","33","36","0.6999999999999999556","0.2999999999999999889","CRCF","0","1","1","1","161","1","264","left","1","17","132","0.5"
"6.5.0","Reversal_Task","1","2021-09-27","14:39:07","choice","Experiment_block_start","cactus.bmp","100","446","36","18","28","5","Acquisiton","18","28","2","36","33","0.6999999999999999556","0.2999999999999999889","CRCF","0","1","1","2","162","1","264","left","1","17","132","0.5"
"6.5.0","Reversal_Task","1","2021-09-27","14:39:07","fixation","Experiment_block_start","+","100","446","36","18","28","5","Acquisiton","18","28","2","36","33","0.6999999999999999556","0.2999999999999999889","CRCF","0","1","1","2","162","2","264","left","2","17","132","1"
"6.5.0","Reversal_Task","1","2021-09-27","14:39:07","choice","Experiment_block_start","cactus.bmp","100","402","33","18","28","5","Acquisiton","18","28","1","33","36","0.6999999999999999556","0.2999999999999999889","CRIF","0","1","-1","3","163","2","264","left","2","17","132","1"
"6.5.0","Reversal_Task","1","2021-09-27","14:39:07","fixation","Experiment_block_start","+","100","402","33","18","28","5","Acquisiton","18","28","1","33","36","0.6999999999999999556","0.2999999999999999889","CRIF","0","1","-1","3","163","2","264","left","3","17","132","1"
"6.5.0","Reversal_Task","1","2021-09-27","14:39:07","choice","Experiment_block_start","cactus.bmp","100","360","33","18","28","5","Acquisiton","18","28","1","33","36","0.6999999999999999556","0.2999999999999999889","CRIF","0","1","-1","4","164","2","264","left","3","17","132","1"
"6.5.0","Reversal_Task","1","2021-09-27","14:39:07","fixation","Experiment_block_start","+","100","360","33","18","28","5","Acquisiton","18","28","1","33","36","0.6999999999999999556","0.2999999999999999889","CRIF","0","1","-1","4","164","2","264","left","4","17","132","1"
"6.5.0","Reversal_Task","1","2021-09-27","14:39:07","choice","Experiment_block_start","cactus.bmp","100","394","36","18","28","5","Acquisiton","18","28","2","36","33","0.6999999999999999556","0.2999999999999999889","CRCF","0","1","1","5","165","2","264","left","4","17","132","1"
"6.5.0","Reversal_Task","1","2021-09-27","14:39:07","fixation","Experiment_block_start","+","100","394","36","18","28","5","Acquisiton","18","28","2","36","33","0.6999999999999999556","0.2999999999999999889","CRCF","0","1","1","5","165","3","264","left","5","17","132","1.5"
"6.5.0","Reversal_Task","1","2021-09-27","14:39:07","choice","Experiment_block_start","cactus.bmp","100","408","33","18","28","5","Acquisiton","18","28","1","33","36","0.6999999999999999556","0.2999999999999999889","CRCF","0","1","1","6","166","3","264","left","5","17","132","1.5"
"6.5.0","Reversal_Task","1","2021-09-27","14:39:07","fixation","Experiment_block_start","+","100","408","33","18","28","5","Acquisiton","18","28","1","33","36","0.6999999999999999556","0.2999999999999999889","CRCF","0","1","1","6","166","4","264","left","6","17","132","2"
"6.5.0","Reversal_Task","1","2021-09-27","14:39:07","choice","Experiment_block_start","cactus.bmp","100","424","36","18","28","5","Acquisiton","18","28","2","36","33","0.6999999999999999556","0.2999999999999999889","CRCF","0","1","1","7","167","4","264","left","6","17","132","2"
"6.5.0","Reversal_Task","1","2021-09-27","14:39:07","fixation","Experiment_block_start","+","100","424","36","18","28","5","Acquisiton","18","28","2","36","33","0.6999999999999999556","0.2999999999999999889","CRCF","0","1","1","7","167","5","264","left","7","17","132","2.5"
"6.5.0","Reversal_Task","1","2021-09-27","14:39:07","choice","Experiment_block_start","cactus.bmp","100","350","33","18","28","5","Acquisiton","18","28","1","33","36","0.6999999999999999556","0.2999999999999999889","CRCF","0","1","1","8","168","5","264","left","7","17","132","2.5"
"6.5.0","Reversal_Task","1","2021-09-27","14:39:07","fixation","Experiment_block_start","+","100","350","33","18","28","5","Acquisiton","18","28","1","33","36","0.6999999999999999556","0.2999999999999999889","CRCF","0","1","1","8","168","6","264","left","8","17","132","3"
"6.5.0","Reversal_Task","1","2021-09-27","14:39:07","choice","Experiment_block_start","cactus.bmp","100","390","33","18","28","5","Acquisiton","18","28","1","33","36","0.6999999999999999556","0.2999999999999999889","CRCF","0","1","1","9","169","6","264","left","8","17","132","3"
"6.5.0","Reversal_Task","1","2021-09-27","14:39:07","fixation","Experiment_block_start","+","100","390","33","18","28","5","Acquisiton","18","28","1","33","36","0.6999999999999999556","0.2999999999999999889","CRCF","0","1","1","9","169","7","264","left","9","17","132","3.5"
"6.5.0","Reversal_Task","1","2021-09-27","14:39:07","choice","Experiment_block_start","cactus.bmp","100","349","36","18","28","5","Acquisiton","18","28","2","36","33","0.6999999999999999556","0.2999999999999999889","CRIF","0","1","-1","10","170","7","264","left","9","17","132","3.5"
"6.5.0","Reversal_Task","1","2021-09-27","14:39:07","fixation","Experiment_block_start","+","100","349","36","18","28","5","Acquisiton","18","28","2","36","33","0.6999999999999999556","0.2999999999999999889","CRIF","0","1","-1","10","170","7","264","left","10","17","132","3.5"
"6.5.0","Reversal_Task","1","2021-09-27","14:39:07","choice","Experiment_block_start","cactus.bmp","100","368","33","18","28","5","Acquisiton","18","28","1","33","36","0.6999999999999999556","0.2999999999999999889","CRCF","0","1","1","11","171","7","264","left","10","17","132","3.5"
"6.5.0","Reversal_Task","1","2021-09-27","14:39:07","fixation","Experiment_block_start","+","100","368","33","18","28","5","Acquisiton","18","28","1","33","36","0.6999999999999999556","0.2999999999999999889","CRCF","0","1","1","11","171","8","264","left","11","17","132","4"
"6.5.0","Reversal_Task","1","2021-09-27","14:39:07","choice","Experiment_block_start","cactus.bmp","100","350","33","18","28","5","Acquisiton","18","28","1","33","36","0.6999999999999999556","0.2999999999999999889","CRCF","0","1","1","12","172","8","264","left","11","17","132","4"
"6.5.0","Reversal_Task","1","2021-09-27","14:39:07","fixation","Experiment_block_start","+","100","350","33","18","28","5","Acquisiton","18","28","1","33","36","0.6999999999999999556","0.2999999999999999889","CRCF","0","1","1","12","172","9","264","left","12","17","132","4.5"
"6.5.0","Reversal_Task","1","2021-09-27","14:39:07","choice","Experiment_block_start","cactus.bmp","100","324","33","18","28","5","Acquisiton","18","28","1","33","36","0.6999999999999999556","0.2999999999999999889","CRCF","0","1","1","13","173","9","264","left","12","17","132","4.5"
"6.5.0","Reversal_Task","1","2021-09-27","14:39:07","fixation","Experiment_block_start","+","100","324","33","18","28","5","Acquisiton","18","28","1","33","36","0.6999999999999999556","0.2999999999999999889","CRCF","0","1","1","13","173","10","264","left","13","17","132","5"
"6.5.0","Reversal_Task","1","2021-09-27","14:39:07","choice","Experiment_block_start","cactus.bmp","100","407","36","18","28","5","Acquisiton","18","28","2","36","33","0.6999999999999999556","0.2999999999999999889","CRCF","0","1","1","14","174","10","264","left","13","17","132","5"
"6.5.0","Reversal_Task","1","2021-09-27","14:39:07","fixation","Experiment_block_start","+","100","407","36","18","28","5","Acquisiton","18","28","2","36","33","0.6999999999999999556","0.2999999999999999889","CRCF","0","1","1","14","174","11","264","left","14","17","132","5.5"
"6.5.0","Reversal_Task","1","2021-09-27","14:39:07","choice","Experiment_block_start","cactus.bmp","100","301","33","18","28","5","Acquisiton","18","28","1","33","36","0.6999999999999999556","0.2999999999999999889","CRCF","0","1","1","15","175","11","264","left","14","17","132","5.5"
"6.5.0","Reversal_Task","1","2021-09-27","14:39:07","fixation","Experiment_block_start","+","100","301","33","18","28","5","Acquisiton","18","28","1","33","36","0.6999999999999999556","0.2999999999999999889","CRCF","0","1","1","15","175","12","264","left","15","17","132","6"
"6.5.0","Reversal_Task","1","2021-09-27","14:39:07","choice","Experiment_block_start","cactus.bmp","100","405","36","18","28","5","Acquisiton","18","28","2","36","33","0.6999999999999999556","0.2999999999999999889","CRCF","0","1","1","16","176","12","264","left","15","17","132","6"
"6.5.0","Reversal_Task","1","2021-09-27","14:39:07","fixation","Experiment_block_start","+","100","405","36","18","28","5","Acquisiton","18","28","2","36","33","0.6999999999999999556","0.2999999999999999889","CRCF","0","1","1","16","176","13","264","left","16","17","132","6.5"
"6.5.0","Reversal_Task","1","2021-09-27","14:39:07","choice","Experiment_block_start","cactus.bmp","100","375","33","18","28","5","Acquisiton","18","28","1","33","36","0.6999999999999999556","0.2999999999999999889","CRIF","0","1","-1","17","177","13","264","left","16","17","132","6.5"
"6.5.0","Reversal_Task","1","2021-09-27","14:39:07","fixation","Experiment_block_start","+","100","375","33","18","28","5","Acquisiton","18","28","1","33","36","0.6999999999999999556","0.2999999999999999889","CRIF","0","1","-1","17","177","13","264","left","17","17","132","6.5"
"6.5.0","Reversal_Task","1","2021-09-27","14:39:07","choice","Experiment_block_start","plane.bmp","100","400","36","28","18","5","Reversal","28","18","1","33","36","0.6999999999999999556","0.2999999999999999889","IRCF","0","-1","-1","18","178","13","264","left","17","17","132","6.5"
