build	experimentName	subject	date	time	trial.presentation_left.response	trial.presentation_left.latency	trial.presentation_right.response	trial.presentation_right.latency	picture.Left.currentvalue	picture.Right.currentvalue	numTrialEachBlock	ITI	instructionIndex	practiceInstructionIndex	block_number	blockName	blockNumber	LeftStimSelected	RightStimSelected	percentTrialsCorrectFeedback_left	percentTrialsCorrectFeedback_right	responseAndFeedbackCategory	voiceGender	voiceSelected	isThisTrialPractice	trialCounter	experimentName	responseName	responseTime	isResponseCorrect	isFeedbackAccurate	trial_number	SIS_toFillMeterOnRightTime	numbercorrect	numberoftimesleft	numberoftimesright	rightleft	reversalnumber	totalcorrect	totalearnings	centsearned
6.4.2	Reversal_Task	1	2021-07-20	16:59:51	45	400	0	3000	12.7018141221957776565	17.4522583709220064918	40	2000	7	0	1	practice	0	12.7018141221957776565	17.4522583709220064918	0.2000000000000000111	0.8000000000000000444	CRCF	0	0	0	0	Reversal_Task			1	1	1	0	0	0	0	right	40		1.5	0
6.4.2	Reversal_Task	1	2021-07-20	16:59:51	45	400	0	3000	12.7018141221957776565	17.4522583709220064918	40	2000	7	0	1	practice	0	12.7018141221957776565	17.4522583709220064918	0.2000000000000000111	0.8000000000000000444	CRCF	0	0	0	0	Reversal_Task			1	1	1	0	0	0	0	right	40		1.5	0
6.4.2	Reversal_Task	1	2021-07-20	16:59:51	45	400	0	3000	12.7018141221957776565	17.4522583709220064918	40	2000	7	0	1	practice	0	12.7018141221957776565	17.4522583709220064918	0.2000000000000000111	0.8000000000000000444	CRCF	0	0	0	0	Reversal_Task			1	1	2	0	0	0	0	right	40		1.5	0
6.4.2	Reversal_Task	1	2021-07-20	16:59:51	45	400	0	3000	12.7018141221957776565	17.4522583709220064918	40	2000	7	0	1	practice	0	12.7018141221957776565	17.4522583709220064918	0.2000000000000000111	0.8000000000000000444	CRCF	0	0	0	0	Reversal_Task			1	1	2	0	0	0	0	right	40		1.5	0
6.4.2	Reversal_Task	1	2021-07-20	16:59:51	45	400	45	2345	12.7018141221957776565	17.4522583709220064918	40	2000	7	0	1	practice	0	12.7018141221957776565	17.4522583709220064918	0.2000000000000000111	0.8000000000000000444	IRIF	0	0	0	0	Reversal_Task			-1	1	3	0	0	1	0	right	40		1.5	0
6.4.2	Reversal_Task	1	2021-07-20	16:59:51	45	400	45	2345	12.7018141221957776565	17.4522583709220064918	40	2000	7	0	1	practice	0	12.7018141221957776565	17.4522583709220064918	0.2000000000000000111	0.8000000000000000444	IRIF	0	0	0	0	Reversal_Task			-1	1	3	0	0	1	0	right	40		1.5	0
6.4.2	Reversal_Task	1	2021-07-20	16:59:51	45	400	45	82	12.7018141221957776565	17.4522583709220064918	40	2000	7	0	1	practice	0	12.7018141221957776565	17.4522583709220064918	0.2000000000000000111	0.8000000000000000444	IRIF	0	0	0	0	Reversal_Task			-1	1	4	0	0	2	0	right	40		1.5	0
6.4.2	Reversal_Task	1	2021-07-20	16:59:51	45	400	45	82	12.7018141221957776565	17.4522583709220064918	40	2000	7	0	1	practice	0	12.7018141221957776565	17.4522583709220064918	0.2000000000000000111	0.8000000000000000444	IRIF	0	0	0	0	Reversal_Task			-1	1	4	0	0	2	0	right	40		1.5	0
6.4.2	Reversal_Task	1	2021-07-20	16:59:51	45	400	50	122	12.7018141221957776565	17.4522583709220064918	40	2000	7	0	1	practice	0	12.7018141221957776565	17.4522583709220064918	0.2000000000000000111	0.8000000000000000444	CRCF	0	0	0	0	Reversal_Task			1	1	5	0	0	2	1	right	40		1.5	0
6.4.2	Reversal_Task	1	2021-07-20	16:59:51	45	400	50	122	12.7018141221957776565	17.4522583709220064918	40	2000	7	0	1	practice	0	12.7018141221957776565	17.4522583709220064918	0.2000000000000000111	0.8000000000000000444	CRCF	0	0	0	0	Reversal_Task			1	1	5	0	1	2	1	right	40		1.5	0.5
6.4.2	Reversal_Task	1	2021-07-20	16:59:51	45	400	50	176	12.7018141221957776565	17.4522583709220064918	40	2000	7	0	1	practice	0	12.7018141221957776565	17.4522583709220064918	0.2000000000000000111	0.8000000000000000444	CRCF	0	0	0	0	Reversal_Task			1	1	6	0	1	2	2	right	40		1.5	0.5
6.4.2	Reversal_Task	1	2021-07-20	16:59:51	45	400	50	176	12.7018141221957776565	17.4522583709220064918	40	2000	7	0	1	practice	0	12.7018141221957776565	17.4522583709220064918	0.2000000000000000111	0.8000000000000000444	CRCF	0	0	0	0	Reversal_Task			1	1	6	0	2	2	2	right	40		1.5	1
6.4.2	Reversal_Task	1	2021-07-20	16:59:51	45	400	50	11	12.7018141221957776565	17.4522583709220064918	40	2000	7	0	1	practice	0	12.7018141221957776565	17.4522583709220064918	0.2000000000000000111	0.8000000000000000444	CRCF	0	0	0	0	Reversal_Task			1	1	7	0	2	2	3	right	40		1.5	1
6.4.2	Reversal_Task	1	2021-07-20	16:59:51	45	400	50	11	12.7018141221957776565	17.4522583709220064918	40	2000	7	0	1	practice	0	12.7018141221957776565	17.4522583709220064918	0.2000000000000000111	0.8000000000000000444	CRCF	0	0	0	0	Reversal_Task			1	1	7	0	3	2	3	right	40		1.5	1.5
6.4.2	Reversal_Task	1	2021-07-20	16:59:51	45	400	50	285	12.7018141221957776565	17.4522583709220064918	40	2000	7	0	1	practice	0	12.7018141221957776565	17.4522583709220064918	0.2000000000000000111	0.8000000000000000444	CRCF	0	0	0	0	Reversal_Task			1	1	8	0	3	2	4	right	40		1.5	1.5
6.4.2	Reversal_Task	1	2021-07-20	16:59:51	45	400	50	285	12.7018141221957776565	17.4522583709220064918	40	2000	7	0	1	practice	0	12.7018141221957776565	17.4522583709220064918	0.2000000000000000111	0.8000000000000000444	CRCF	0	0	0	0	Reversal_Task			1	1	8	0	4	2	4	right	40		1.5	2
6.4.2	Reversal_Task	1	2021-07-20	16:59:51	45	400	50	165	12.7018141221957776565	17.4522583709220064918	40	2000	7	0	1	practice	0	12.7018141221957776565	17.4522583709220064918	0.2000000000000000111	0.8000000000000000444	CRIF	0	0	0	0	Reversal_Task			1	-1	9	0	4	2	5	right	40		1.5	2
6.4.2	Reversal_Task	1	2021-07-20	16:59:51	45	400	50	165	12.7018141221957776565	17.4522583709220064918	40	2000	7	0	1	practice	0	12.7018141221957776565	17.4522583709220064918	0.2000000000000000111	0.8000000000000000444	CRIF	0	0	0	0	Reversal_Task			1	-1	9	0	4	2	5	right	40		1.5	2
6.4.2	Reversal_Task	1	2021-07-20	16:59:51	45	400	50	160	12.7018141221957776565	17.4522583709220064918	40	2000	7	0	1	practice	0	12.7018141221957776565	17.4522583709220064918	0.2000000000000000111	0.8000000000000000444	CRCF	0	0	0	0	Reversal_Task			1	1	10	0	4	2	6	right	40		1.5	2
6.4.2	Reversal_Task	1	2021-07-20	16:59:51	45	400	50	160	12.7018141221957776565	17.4522583709220064918	40	2000	7	0	1	practice	0	12.7018141221957776565	17.4522583709220064918	0.2000000000000000111	0.8000000000000000444	CRCF	0	0	0	0	Reversal_Task			1	1	10	0	5	2	6	right	40		1.5	2.5
6.4.2	Reversal_Task	1	2021-07-20	16:59:51	45	400	0	3000	12.7018141221957776565	17.4522583709220064918	40	2000	7	0	1	practice	0	12.7018141221957776565	17.4522583709220064918	0.2000000000000000111	0.8000000000000000444	CRCF	0	0	0	0	Reversal_Task			1	1	11	0	5	2	6	right	40		1.5	2.5
6.4.2	Reversal_Task	1	2021-07-20	16:59:51	45	400	0	3000	12.7018141221957776565	17.4522583709220064918	40	2000	7	0	1	practice	0	12.7018141221957776565	17.4522583709220064918	0.2000000000000000111	0.8000000000000000444	CRCF	0	0	0	0	Reversal_Task			1	1	11	0	5	2	6	right	40		1.5	2.5
6.4.2	Reversal_Task	1	2021-07-20	16:59:51	45	400	0	3000	12.7018141221957776565	17.4522583709220064918	40	2000	7	0	1	practice	0	12.7018141221957776565	17.4522583709220064918	0.2000000000000000111	0.8000000000000000444	CRCF	0	0	0	0	Reversal_Task			1	1	12	0	5	2	6	right	40		1.5	2.5
6.4.2	Reversal_Task	1	2021-07-20	16:59:51	45	400	0	3000	12.7018141221957776565	17.4522583709220064918	40	2000	7	0	1	practice	0	12.7018141221957776565	17.4522583709220064918	0.2000000000000000111	0.8000000000000000444	CRCF	0	0	0	0	Reversal_Task			1	1	12	0	5	2	6	right	40		1.5	2.5
6.4.2	Reversal_Task	1	2021-07-20	16:59:51	45	400	0	3000	12.7018141221957776565	17.4522583709220064918	40	2000	7	0	1	practice	0	12.7018141221957776565	17.4522583709220064918	0.2000000000000000111	0.8000000000000000444	CRCF	0	0	0	0	Reversal_Task			1	1	13	0	5	2	6	right	40		1.5	2.5
6.4.2	Reversal_Task	1	2021-07-20	16:59:51	45	400	0	3000	12.7018141221957776565	17.4522583709220064918	40	2000	7	0	1	practice	0	12.7018141221957776565	17.4522583709220064918	0.2000000000000000111	0.8000000000000000444	CRCF	0	0	0	0	Reversal_Task			1	1	13	0	5	2	6	right	40		1.5	2.5
6.4.2	Reversal_Task	1	2021-07-20	16:59:51	45	400	0	3000	12.7018141221957776565	17.4522583709220064918	40	2000	7	0	1	practice	0	12.7018141221957776565	17.4522583709220064918	0.2000000000000000111	0.8000000000000000444	CRCF	0	0	0	0	Reversal_Task			1	1	14	0	5	2	6	right	40		1.5	2.5
6.4.2	Reversal_Task	1	2021-07-20	16:59:51	45	400	0	3000	12.7018141221957776565	17.4522583709220064918	40	2000	7	0	1	practice	0	12.7018141221957776565	17.4522583709220064918	0.2000000000000000111	0.8000000000000000444	CRCF	0	0	0	0	Reversal_Task			1	1	14	0	5	2	6	right	40		1.5	2.5
6.4.2	Reversal_Task	1	2021-07-20	16:59:51	45	400	0	3000	12.7018141221957776565	17.4522583709220064918	40	2000	7	0	1	practice	0	12.7018141221957776565	17.4522583709220064918	0.2000000000000000111	0.8000000000000000444	CRCF	0	0	0	0	Reversal_Task			1	1	15	0	5	2	6	right	40		1.5	2.5
6.4.2	Reversal_Task	1	2021-07-20	16:59:51	45	400	0	3000	12.7018141221957776565	17.4522583709220064918	40	2000	7	0	1	practice	0	12.7018141221957776565	17.4522583709220064918	0.2000000000000000111	0.8000000000000000444	CRCF	0	0	0	0	Reversal_Task			1	1	15	0	5	2	6	right	40		1.5	2.5
6.4.2	Reversal_Task	1	2021-07-20	16:59:51	45	400	0	3000	12.7018141221957776565	17.4522583709220064918	40	2000	7	0	1	practice	0	12.7018141221957776565	17.4522583709220064918	0.2000000000000000111	0.8000000000000000444	CRCF	0	0	0	0	Reversal_Task			1	1	16	0	5	2	6	right	40		1.5	2.5
6.4.2	Reversal_Task	1	2021-07-20	16:59:51	45	400	0	3000	12.7018141221957776565	17.4522583709220064918	40	2000	7	0	1	practice	0	12.7018141221957776565	17.4522583709220064918	0.2000000000000000111	0.8000000000000000444	CRCF	0	0	0	0	Reversal_Task			1	1	16	0	5	2	6	right	40		1.5	2.5
6.4.2	Reversal_Task	1	2021-07-20	16:59:51	45	400	0	3000	12.7018141221957776565	17.4522583709220064918	40	2000	7	0	1	practice	0	12.7018141221957776565	17.4522583709220064918	0.2000000000000000111	0.8000000000000000444	CRCF	0	0	0	0	Reversal_Task			1	1	17	0	5	2	6	right	40		1.5	2.5
6.4.2	Reversal_Task	1	2021-07-20	16:59:51	45	400	0	3000	12.7018141221957776565	17.4522583709220064918	40	2000	7	0	1	practice	0	12.7018141221957776565	17.4522583709220064918	0.2000000000000000111	0.8000000000000000444	CRCF	0	0	0	0	Reversal_Task			1	1	17	0	5	2	6	right	40		1.5	2.5
6.4.2	Reversal_Task	1	2021-07-20	16:59:51	45	400	0	3000	12.7018141221957776565	17.4522583709220064918	40	2000	7	0	1	practice	0	12.7018141221957776565	17.4522583709220064918	0.2000000000000000111	0.8000000000000000444	CRCF	0	0	0	0	Reversal_Task			1	1	18	0	5	2	6	right	40		1.5	2.5
6.4.2	Reversal_Task	1	2021-07-20	16:59:51	45	400	0	3000	12.7018141221957776565	17.4522583709220064918	40	2000	7	0	1	practice	0	12.7018141221957776565	17.4522583709220064918	0.2000000000000000111	0.8000000000000000444	CRCF	0	0	0	0	Reversal_Task			1	1	18	0	5	2	6	right	40		1.5	2.5
6.4.2	Reversal_Task	1	2021-07-20	16:59:51	45	400	0	3000	12.7018141221957776565	17.4522583709220064918	40	2000	7	0	1	practice	0	12.7018141221957776565	17.4522583709220064918	0.2000000000000000111	0.8000000000000000444	CRCF	0	0	0	0	Reversal_Task			1	1	19	0	5	2	6	right	40		1.5	2.5
6.4.2	Reversal_Task	1	2021-07-20	16:59:51	45	400	0	3000	12.7018141221957776565	17.4522583709220064918	40	2000	7	0	1	practice	0	12.7018141221957776565	17.4522583709220064918	0.2000000000000000111	0.8000000000000000444	CRCF	0	0	0	0	Reversal_Task			1	1	19	0	5	2	6	right	40		1.5	2.5
6.4.2	Reversal_Task	1	2021-07-20	16:59:51	45	400	50	127	12.7018141221957776565	17.4522583709220064918	40	2000	7	0	1	practice	0	12.7018141221957776565	17.4522583709220064918	0.2000000000000000111	0.8000000000000000444	CRCF	0	0	0	0	Reversal_Task			1	1	20	0	5	2	7	right	40		1.5	2.5
6.4.2	Reversal_Task	1	2021-07-20	16:59:51	45	400	50	127	12.7018141221957776565	17.4522583709220064918	40	2000	7	0	1	practice	0	12.7018141221957776565	17.4522583709220064918	0.2000000000000000111	0.8000000000000000444	CRCF	0	0	0	0	Reversal_Task			1	1	20	0	6	2	7	right	40		1.5	3
6.4.2	Reversal_Task	1	2021-07-20	16:59:51	45	400	50	252	12.7018141221957776565	17.4522583709220064918	40	2000	7	0	1	practice	0	12.7018141221957776565	17.4522583709220064918	0.2000000000000000111	0.8000000000000000444	CRCF	0	0	0	0	Reversal_Task			1	1	21	0	6	2	8	right	40		1.5	3
6.4.2	Reversal_Task	1	2021-07-20	16:59:51	45	400	50	252	12.7018141221957776565	17.4522583709220064918	40	2000	7	0	1	practice	0	12.7018141221957776565	17.4522583709220064918	0.2000000000000000111	0.8000000000000000444	CRCF	0	0	0	0	Reversal_Task			1	1	21	0	7	2	8	right	40		1.5	3.5
6.4.2	Reversal_Task	1	2021-07-20	16:59:51	45	400	50	285	12.7018141221957776565	17.4522583709220064918	40	2000	7	0	1	practice	0	12.7018141221957776565	17.4522583709220064918	0.2000000000000000111	0.8000000000000000444	CRIF	0	0	0	0	Reversal_Task			1	-1	22	0	7	2	9	right	40		1.5	3.5
6.4.2	Reversal_Task	1	2021-07-20	16:59:51	45	400	50	285	12.7018141221957776565	17.4522583709220064918	40	2000	7	0	1	practice	0	12.7018141221957776565	17.4522583709220064918	0.2000000000000000111	0.8000000000000000444	CRIF	0	0	0	0	Reversal_Task			1	-1	22	0	7	2	9	right	40		1.5	3.5
6.4.2	Reversal_Task	1	2021-07-20	16:59:51	45	400	50	154	12.7018141221957776565	17.4522583709220064918	40	2000	7	0	1	practice	0	12.7018141221957776565	17.4522583709220064918	0.2000000000000000111	0.8000000000000000444	CRIF	0	0	0	0	Reversal_Task			1	-1	23	0	7	2	10	right	40		1.5	3.5
6.4.2	Reversal_Task	1	2021-07-20	16:59:51	45	400	50	154	12.7018141221957776565	17.4522583709220064918	40	2000	7	0	1	practice	0	12.7018141221957776565	17.4522583709220064918	0.2000000000000000111	0.8000000000000000444	CRIF	0	0	0	0	Reversal_Task			1	-1	23	0	7	2	10	right	40		1.5	3.5
6.4.2	Reversal_Task	1	2021-07-20	16:59:51	45	400	50	159	12.7018141221957776565	17.4522583709220064918	40	2000	7	0	1	practice	0	12.7018141221957776565	17.4522583709220064918	0.2000000000000000111	0.8000000000000000444	CRCF	0	0	0	0	Reversal_Task			1	1	24	0	7	2	11	right	40		1.5	3.5
6.4.2	Reversal_Task	1	2021-07-20	16:59:51	45	400	50	159	12.7018141221957776565	17.4522583709220064918	40	2000	7	0	1	practice	0	12.7018141221957776565	17.4522583709220064918	0.2000000000000000111	0.8000000000000000444	CRCF	0	0	0	0	Reversal_Task			1	1	24	0	8	2	11	right	40		1.5	4
6.4.2	Reversal_Task	1	2021-07-20	16:59:51	45	400	50	155	12.7018141221957776565	17.4522583709220064918	40	2000	7	0	1	practice	0	12.7018141221957776565	17.4522583709220064918	0.2000000000000000111	0.8000000000000000444	CRCF	0	0	0	0	Reversal_Task			1	1	25	0	8	2	12	right	40		1.5	4
6.4.2	Reversal_Task	1	2021-07-20	16:59:51	45	400	50	155	12.7018141221957776565	17.4522583709220064918	40	2000	7	0	1	practice	0	12.7018141221957776565	17.4522583709220064918	0.2000000000000000111	0.8000000000000000444	CRCF	0	0	0	0	Reversal_Task			1	1	25	0	9	2	12	right	40		1.5	4.5
6.4.2	Reversal_Task	1	2021-07-20	16:59:51	45	400	50	85	12.7018141221957776565	17.4522583709220064918	40	2000	7	0	1	practice	0	12.7018141221957776565	17.4522583709220064918	0.2000000000000000111	0.8000000000000000444	CRIF	0	0	0	0	Reversal_Task			1	-1	26	0	9	2	13	right	40		1.5	4.5
6.4.2	Reversal_Task	1	2021-07-20	16:59:51	45	400	50	85	12.7018141221957776565	17.4522583709220064918	40	2000	7	0	1	practice	0	12.7018141221957776565	17.4522583709220064918	0.2000000000000000111	0.8000000000000000444	CRIF	0	0	0	0	Reversal_Task			1	-1	26	0	9	2	13	right	40		1.5	4.5
6.4.2	Reversal_Task	1	2021-07-20	16:59:51	45	400	50	246	12.7018141221957776565	17.4522583709220064918	40	2000	7	0	1	practice	0	12.7018141221957776565	17.4522583709220064918	0.2000000000000000111	0.8000000000000000444	CRCF	0	0	0	0	Reversal_Task			1	1	27	0	9	2	14	right	40		1.5	4.5
6.4.2	Reversal_Task	1	2021-07-20	16:59:51	45	400	50	246	12.7018141221957776565	17.4522583709220064918	40	2000	7	0	1	practice	0	12.7018141221957776565	17.4522583709220064918	0.2000000000000000111	0.8000000000000000444	CRCF	0	0	0	0	Reversal_Task			1	1	27	0	10	2	14	right	40		1.5	5
6.4.2	Reversal_Task	1	2021-07-20	16:59:51	45	400	50	150	12.7018141221957776565	17.4522583709220064918	40	2000	7	0	1	practice	0	12.7018141221957776565	17.4522583709220064918	0.2000000000000000111	0.8000000000000000444	CRIF	0	0	0	0	Reversal_Task			1	-1	28	0	10	2	15	right	40		1.5	5
6.4.2	Reversal_Task	1	2021-07-20	16:59:51	45	400	50	150	12.7018141221957776565	17.4522583709220064918	40	2000	7	0	1	practice	0	12.7018141221957776565	17.4522583709220064918	0.2000000000000000111	0.8000000000000000444	CRIF	0	0	0	0	Reversal_Task			1	-1	28	0	10	2	15	right	40		1.5	5
6.4.2	Reversal_Task	1	2021-07-20	16:59:51	45	400	50	75	12.7018141221957776565	17.4522583709220064918	40	2000	7	0	1	practice	0	12.7018141221957776565	17.4522583709220064918	0.2000000000000000111	0.8000000000000000444	CRCF	0	0	0	0	Reversal_Task			1	1	29	0	10	2	16	right	40		1.5	5
6.4.2	Reversal_Task	1	2021-07-20	16:59:51	45	400	50	75	12.7018141221957776565	17.4522583709220064918	40	2000	7	0	1	practice	0	12.7018141221957776565	17.4522583709220064918	0.2000000000000000111	0.8000000000000000444	CRCF	0	0	0	0	Reversal_Task			1	1	29	0	11	2	16	right	40		1.5	5.5
6.4.2	Reversal_Task	1	2021-07-20	16:59:51	45	400	50	858	12.7018141221957776565	17.4522583709220064918	40	2000	7	0	1	practice	0	12.7018141221957776565	17.4522583709220064918	0.2000000000000000111	0.8000000000000000444	CRCF	0	0	0	0	Reversal_Task			1	1	30	0	11	2	17	right	40		1.5	5.5
6.4.2	Reversal_Task	1	2021-07-20	16:59:51	45	400	50	858	12.7018141221957776565	17.4522583709220064918	40	2000	7	0	1	practice	0	12.7018141221957776565	17.4522583709220064918	0.2000000000000000111	0.8000000000000000444	CRCF	0	0	0	0	Reversal_Task			1	1	30	0	12	2	17	right	40		1.5	6
6.4.2	Reversal_Task	1	2021-07-20	16:59:51	45	400	50	426	12.7018141221957776565	17.4522583709220064918	40	2000	7	0	1	practice	0	12.7018141221957776565	17.4522583709220064918	0.2000000000000000111	0.8000000000000000444	CRCF	0	0	0	0	Reversal_Task			1	1	31	0	12	2	18	right	40		1.5	6
6.4.2	Reversal_Task	1	2021-07-20	16:59:51	45	400	50	426	12.7018141221957776565	17.4522583709220064918	40	2000	7	0	1	practice	0	12.7018141221957776565	17.4522583709220064918	0.2000000000000000111	0.8000000000000000444	CRCF	0	0	0	0	Reversal_Task			1	1	31	0	13	2	18	right	40		1.5	6.5
6.4.2	Reversal_Task	1	2021-07-20	16:59:51	45	400	50	291	12.7018141221957776565	17.4522583709220064918	40	2000	7	0	1	practice	0	12.7018141221957776565	17.4522583709220064918	0.2000000000000000111	0.8000000000000000444	CRCF	0	0	0	0	Reversal_Task			1	1	32	0	13	2	19	right	40		1.5	6.5
6.4.2	Reversal_Task	1	2021-07-20	16:59:51	45	400	50	291	12.7018141221957776565	17.4522583709220064918	40	2000	7	0	1	practice	0	12.7018141221957776565	17.4522583709220064918	0.2000000000000000111	0.8000000000000000444	CRCF	0	0	0	0	Reversal_Task			1	1	32	0	14	2	19	right	40		1.5	7
6.4.2	Reversal_Task	1	2021-07-20	16:59:51	45	400	50	40	12.7018141221957776565	17.4522583709220064918	40	2000	7	0	1	practice	0	12.7018141221957776565	17.4522583709220064918	0.2000000000000000111	0.8000000000000000444	CRCF	0	0	0	0	Reversal_Task			1	1	33	0	14	2	20	right	40		1.5	7
6.4.2	Reversal_Task	1	2021-07-20	16:59:51	45	400	50	40	12.7018141221957776565	17.4522583709220064918	40	2000	7	0	1	practice	0	12.7018141221957776565	17.4522583709220064918	0.2000000000000000111	0.8000000000000000444	CRCF	0	0	0	0	Reversal_Task			1	1	33	0	15	2	20	right	40		1.5	7.5
6.4.2	Reversal_Task	1	2021-07-20	16:59:51	45	400	50	74	12.7018141221957776565	17.4522583709220064918	40	2000	7	0	1	practice	0	12.7018141221957776565	17.4522583709220064918	0.2000000000000000111	0.8000000000000000444	CRCF	0	0	0	0	Reversal_Task			1	1	34	0	15	2	21	right	40		1.5	7.5
6.4.2	Reversal_Task	1	2021-07-20	16:59:51	45	400	50	74	12.7018141221957776565	17.4522583709220064918	40	2000	7	0	1	practice	0	12.7018141221957776565	17.4522583709220064918	0.2000000000000000111	0.8000000000000000444	CRCF	0	0	0	0	Reversal_Task			1	1	34	0	16	2	21	right	40		1.5	8
6.4.2	Reversal_Task	1	2021-07-20	16:59:51	45	400	50	217	12.7018141221957776565	17.4522583709220064918	40	2000	7	0	1	practice	0	12.7018141221957776565	17.4522583709220064918	0.2000000000000000111	0.8000000000000000444	CRCF	0	0	0	0	Reversal_Task			1	1	35	0	16	2	22	right	40		1.5	8
6.4.2	Reversal_Task	1	2021-07-20	16:59:51	45	400	50	217	12.7018141221957776565	17.4522583709220064918	40	2000	7	0	1	practice	0	12.7018141221957776565	17.4522583709220064918	0.2000000000000000111	0.8000000000000000444	CRCF	0	0	0	0	Reversal_Task			1	1	35	0	17	2	22	right	40		1.5	8.5
6.4.2	Reversal_Task	1	2021-07-20	16:59:51	45	400	50	155	12.7018141221957776565	17.4522583709220064918	40	2000	7	0	1	practice	0	12.7018141221957776565	17.4522583709220064918	0.2000000000000000111	0.8000000000000000444	CRCF	0	0	0	0	Reversal_Task			1	1	36	0	17	2	23	right	40		1.5	8.5
6.4.2	Reversal_Task	1	2021-07-20	16:59:51	45	400	50	155	12.7018141221957776565	17.4522583709220064918	40	2000	7	0	1	practice	0	12.7018141221957776565	17.4522583709220064918	0.2000000000000000111	0.8000000000000000444	CRCF	0	0	0	0	Reversal_Task			1	1	36	0	18	2	23	right	40		1.5	9
6.4.2	Reversal_Task	1	2021-07-20	16:59:51	45	400	50	631	12.7018141221957776565	17.4522583709220064918	40	2000	7	0	1	practice	0	12.7018141221957776565	17.4522583709220064918	0.2000000000000000111	0.8000000000000000444	CRCF	0	0	0	0	Reversal_Task			1	1	37	0	18	2	24	right	40		1.5	9
6.4.2	Reversal_Task	1	2021-07-20	16:59:51	45	400	50	631	12.7018141221957776565	17.4522583709220064918	40	2000	7	0	1	practice	0	12.7018141221957776565	17.4522583709220064918	0.2000000000000000111	0.8000000000000000444	CRCF	0	0	0	0	Reversal_Task			1	1	37	0	19	2	24	right	40		1.5	9.5
6.4.2	Reversal_Task	1	2021-07-20	16:59:51	45	400	50	121	12.7018141221957776565	17.4522583709220064918	40	2000	7	0	1	practice	0	12.7018141221957776565	17.4522583709220064918	0.2000000000000000111	0.8000000000000000444	CRCF	0	0	0	0	Reversal_Task			1	1	38	0	19	2	25	right	40		1.5	9.5
6.4.2	Reversal_Task	1	2021-07-20	16:59:51	45	400	50	121	12.7018141221957776565	17.4522583709220064918	40	2000	7	0	1	practice	0	12.7018141221957776565	17.4522583709220064918	0.2000000000000000111	0.8000000000000000444	CRCF	0	0	0	0	Reversal_Task			1	1	38	0	20	2	25	right	40		1.5	10
6.4.2	Reversal_Task	1	2021-07-20	16:59:51	45	400	50	215	12.7018141221957776565	17.4522583709220064918	40	2000	7	0	1	practice	0	12.7018141221957776565	17.4522583709220064918	0.2000000000000000111	0.8000000000000000444	CRIF	0	0	0	0	Reversal_Task			1	-1	39	0	20	2	26	right	40		1.5	10
6.4.2	Reversal_Task	1	2021-07-20	16:59:51	45	400	50	215	12.7018141221957776565	17.4522583709220064918	40	2000	7	0	1	practice	0	12.7018141221957776565	17.4522583709220064918	0.2000000000000000111	0.8000000000000000444	CRIF	0	0	0	0	Reversal_Task			1	-1	39	0	20	2	26	right	40		1.5	10
6.4.2	Reversal_Task	1	2021-07-20	16:59:51	45	400	50	89	12.7018141221957776565	17.4522583709220064918	40	2000	7	0	1	practice	0	12.7018141221957776565	17.4522583709220064918	0.2000000000000000111	0.8000000000000000444	CRCF	0	0	0	0	Reversal_Task			1	1	40	0	20	2	27	right	40		1.5	10
6.4.2	Reversal_Task	1	2021-07-20	16:59:51	45	400	50	89	12.7018141221957776565	17.4522583709220064918	40	2000	7	0	1	practice	0	12.7018141221957776565	17.4522583709220064918	0.2000000000000000111	0.8000000000000000444	CRCF	0	0	0	0	Reversal_Task			1	1	40	0	21	2	27	right	40		1.5	10.5
6.4.2	Reversal_Task	1	2021-07-20	16:59:51	50	72	50	89	12.7018141221957776565	17.4522583709220064918	40	2000	7	0	1	practice	0	12.7018141221957776565	17.4522583709220064918	0.8000000000000000444	0.2000000000000000111	IRIF	0	0	0	0	Reversal_Task			-1	1	41	0	21	2	28	left	40		1.5	10.5
6.4.2	Reversal_Task	1	2021-07-20	16:59:51	50	72	50	89	12.7018141221957776565	17.4522583709220064918	40	2000	7	0	1	practice	0	12.7018141221957776565	17.4522583709220064918	0.8000000000000000444	0.2000000000000000111	IRIF	0	0	0	0	Reversal_Task			-1	1	41	0	21	2	28	left	40		1.5	10.5
6.4.2	Reversal_Task	1	2021-07-20	16:59:51	50	70	50	89	12.7018141221957776565	17.4522583709220064918	40	2000	7	0	1	practice	0	12.7018141221957776565	17.4522583709220064918	0.8000000000000000444	0.2000000000000000111	IRCF	0	0	0	0	Reversal_Task			-1	-1	42	0	21	2	29	left	40		1.5	10.5
6.4.2	Reversal_Task	1	2021-07-20	16:59:51	50	70	50	89	12.7018141221957776565	17.4522583709220064918	40	2000	7	0	1	practice	0	12.7018141221957776565	17.4522583709220064918	0.8000000000000000444	0.2000000000000000111	IRCF	0	0	0	0	Reversal_Task			-1	-1	42	0	22	2	29	left	40		1.5	11
6.4.2	Reversal_Task	1	2021-07-20	16:59:51	50	140	50	89	12.7018141221957776565	17.4522583709220064918	40	2000	7	0	1	practice	0	12.7018141221957776565	17.4522583709220064918	0.8000000000000000444	0.2000000000000000111	IRCF	0	0	0	0	Reversal_Task			-1	-1	43	0	22	2	30	left	40		1.5	11
6.4.2	Reversal_Task	1	2021-07-20	16:59:51	50	140	50	89	12.7018141221957776565	17.4522583709220064918	40	2000	7	0	1	practice	0	12.7018141221957776565	17.4522583709220064918	0.8000000000000000444	0.2000000000000000111	IRCF	0	0	0	0	Reversal_Task			-1	-1	43	0	23	2	30	left	40		1.5	11.5
6.4.2	Reversal_Task	1	2021-07-20	16:59:51	50	131	50	89	12.7018141221957776565	17.4522583709220064918	40	2000	7	0	1	practice	0	12.7018141221957776565	17.4522583709220064918	0.8000000000000000444	0.2000000000000000111	IRIF	0	0	0	0	Reversal_Task			-1	1	44	0	23	2	31	left	40		1.5	11.5
6.4.2	Reversal_Task	1	2021-07-20	16:59:51	50	131	50	89	12.7018141221957776565	17.4522583709220064918	40	2000	7	0	1	practice	0	12.7018141221957776565	17.4522583709220064918	0.8000000000000000444	0.2000000000000000111	IRIF	0	0	0	0	Reversal_Task			-1	1	44	0	23	2	31	left	40		1.5	11.5
6.4.2	Reversal_Task	1	2021-07-20	16:59:51	50	136	50	89	12.7018141221957776565	17.4522583709220064918	40	2000	7	0	1	practice	0	12.7018141221957776565	17.4522583709220064918	0.8000000000000000444	0.2000000000000000111	IRIF	0	0	0	0	Reversal_Task			-1	1	45	0	23	2	32	left	40		1.5	11.5
6.4.2	Reversal_Task	1	2021-07-20	16:59:51	50	136	50	89	12.7018141221957776565	17.4522583709220064918	40	2000	7	0	1	practice	0	12.7018141221957776565	17.4522583709220064918	0.8000000000000000444	0.2000000000000000111	IRIF	0	0	0	0	Reversal_Task			-1	1	45	0	23	2	32	left	40		1.5	11.5
6.4.2	Reversal_Task	1	2021-07-20	16:59:51	50	132	50	89	12.7018141221957776565	17.4522583709220064918	40	2000	7	0	1	practice	0	12.7018141221957776565	17.4522583709220064918	0.8000000000000000444	0.2000000000000000111	IRCF	0	0	0	0	Reversal_Task			-1	-1	46	0	23	2	33	left	40		1.5	11.5
6.4.2	Reversal_Task	1	2021-07-20	16:59:51	50	132	50	89	12.7018141221957776565	17.4522583709220064918	40	2000	7	0	1	practice	0	12.7018141221957776565	17.4522583709220064918	0.8000000000000000444	0.2000000000000000111	IRCF	0	0	0	0	Reversal_Task			-1	-1	46	0	24	2	33	left	40		1.5	12
6.4.2	Reversal_Task	1	2021-07-20	16:59:51	45	338	50	89	12.7018141221957776565	17.4522583709220064918	40	2000	7	0	1	practice	0	12.7018141221957776565	17.4522583709220064918	0.8000000000000000444	0.2000000000000000111	CRCF	0	0	0	0	Reversal_Task			1	1	47	0	24	3	33	left	40		1.5	12
6.4.2	Reversal_Task	1	2021-07-20	16:59:51	45	338	50	89	12.7018141221957776565	17.4522583709220064918	40	2000	7	0	1	practice	0	12.7018141221957776565	17.4522583709220064918	0.8000000000000000444	0.2000000000000000111	CRCF	0	0	0	0	Reversal_Task			1	1	47	0	25	3	33	left	40		1.5	12.5
6.4.2	Reversal_Task	1	2021-07-20	16:59:51	50	71	50	89	12.7018141221957776565	17.4522583709220064918	40	2000	7	0	1	practice	0	12.7018141221957776565	17.4522583709220064918	0.8000000000000000444	0.2000000000000000111	IRIF	0	0	0	0	Reversal_Task			-1	1	48	0	25	3	34	left	40		1.5	12.5
6.4.2	Reversal_Task	1	2021-07-20	16:59:51	50	71	50	89	12.7018141221957776565	17.4522583709220064918	40	2000	7	0	1	practice	0	12.7018141221957776565	17.4522583709220064918	0.8000000000000000444	0.2000000000000000111	IRIF	0	0	0	0	Reversal_Task			-1	1	48	0	25	3	34	left	40		1.5	12.5
6.4.2	Reversal_Task	1	2021-07-20	16:59:51	50	15	50	89	12.7018141221957776565	17.4522583709220064918	40	2000	7	0	1	practice	0	12.7018141221957776565	17.4522583709220064918	0.8000000000000000444	0.2000000000000000111	IRIF	0	0	0	0	Reversal_Task			-1	1	49	0	25	3	35	left	40		1.5	12.5
6.4.2	Reversal_Task	1	2021-07-20	16:59:51	50	15	50	89	12.7018141221957776565	17.4522583709220064918	40	2000	7	0	1	practice	0	12.7018141221957776565	17.4522583709220064918	0.8000000000000000444	0.2000000000000000111	IRIF	0	0	0	0	Reversal_Task			-1	1	49	0	25	3	35	left	40		1.5	12.5
6.4.2	Reversal_Task	1	2021-07-20	16:59:51	50	121	50	89	12.7018141221957776565	17.4522583709220064918	40	2000	7	0	1	practice	0	12.7018141221957776565	17.4522583709220064918	0.8000000000000000444	0.2000000000000000111	IRIF	0	0	0	0	Reversal_Task			-1	1	50	0	25	3	36	left	40		1.5	12.5
6.4.2	Reversal_Task	1	2021-07-20	16:59:51	50	121	50	89	12.7018141221957776565	17.4522583709220064918	40	2000	7	0	1	practice	0	12.7018141221957776565	17.4522583709220064918	0.8000000000000000444	0.2000000000000000111	IRIF	0	0	0	0	Reversal_Task			-1	1	50	0	25	3	36	left	40		1.5	12.5
6.4.2	Reversal_Task	1	2021-07-20	16:59:51	50	133	50	89	12.7018141221957776565	17.4522583709220064918	40	2000	7	0	1	practice	0	12.7018141221957776565	17.4522583709220064918	0.8000000000000000444	0.2000000000000000111	IRIF	0	0	0	0	Reversal_Task			-1	1	51	0	25	3	37	left	40		1.5	12.5
6.4.2	Reversal_Task	1	2021-07-20	16:59:51	50	133	50	89	12.7018141221957776565	17.4522583709220064918	40	2000	7	0	1	practice	0	12.7018141221957776565	17.4522583709220064918	0.8000000000000000444	0.2000000000000000111	IRIF	0	0	0	0	Reversal_Task			-1	1	51	0	25	3	37	left	40		1.5	12.5
6.4.2	Reversal_Task	1	2021-07-20	16:59:51	45	99	50	89	12.7018141221957776565	17.4522583709220064918	40	2000	7	0	1	practice	0	12.7018141221957776565	17.4522583709220064918	0.8000000000000000444	0.2000000000000000111	CRCF	0	0	0	0	Reversal_Task			1	1	52	0	25	4	37	left	40		1.5	12.5
6.4.2	Reversal_Task	1	2021-07-20	16:59:51	45	99	50	89	12.7018141221957776565	17.4522583709220064918	40	2000	7	0	1	practice	0	12.7018141221957776565	17.4522583709220064918	0.8000000000000000444	0.2000000000000000111	CRCF	0	0	0	0	Reversal_Task			1	1	52	0	26	4	37	left	40		1.5	13
6.4.2	Reversal_Task	1	2021-07-20	16:59:51	45	154	50	89	12.7018141221957776565	17.4522583709220064918	40	2000	7	0	1	practice	0	12.7018141221957776565	17.4522583709220064918	0.8000000000000000444	0.2000000000000000111	CRCF	0	0	0	0	Reversal_Task			1	1	53	0	26	5	37	left	40		1.5	13
6.4.2	Reversal_Task	1	2021-07-20	16:59:51	45	154	50	89	12.7018141221957776565	17.4522583709220064918	40	2000	7	0	1	practice	0	12.7018141221957776565	17.4522583709220064918	0.8000000000000000444	0.2000000000000000111	CRCF	0	0	0	0	Reversal_Task			1	1	53	0	27	5	37	left	40		1.5	13.5
6.4.2	Reversal_Task	1	2021-07-20	16:59:51	45	63	50	89	12.7018141221957776565	17.4522583709220064918	40	2000	7	0	1	practice	0	12.7018141221957776565	17.4522583709220064918	0.8000000000000000444	0.2000000000000000111	CRCF	0	0	0	0	Reversal_Task			1	1	54	0	27	6	37	left	40		1.5	13.5
6.4.2	Reversal_Task	1	2021-07-20	16:59:51	45	63	50	89	12.7018141221957776565	17.4522583709220064918	40	2000	7	0	1	practice	0	12.7018141221957776565	17.4522583709220064918	0.8000000000000000444	0.2000000000000000111	CRCF	0	0	0	0	Reversal_Task			1	1	54	0	28	6	37	left	40		1.5	14
6.4.2	Reversal_Task	1	2021-07-20	16:59:51	45	166	50	89	12.7018141221957776565	17.4522583709220064918	40	2000	7	0	1	practice	0	12.7018141221957776565	17.4522583709220064918	0.8000000000000000444	0.2000000000000000111	CRCF	0	0	0	0	Reversal_Task			1	1	55	0	28	7	37	left	40		1.5	14
6.4.2	Reversal_Task	1	2021-07-20	16:59:51	45	166	50	89	12.7018141221957776565	17.4522583709220064918	40	2000	7	0	1	practice	0	12.7018141221957776565	17.4522583709220064918	0.8000000000000000444	0.2000000000000000111	CRCF	0	0	0	0	Reversal_Task			1	1	55	0	29	7	37	left	40		1.5	14.5
6.4.2	Reversal_Task	1	2021-07-20	16:59:51	45	1010	50	89	12.7018141221957776565	17.4522583709220064918	40	2000	7	0	1	practice	0	12.7018141221957776565	17.4522583709220064918	0.8000000000000000444	0.2000000000000000111	CRCF	0	0	0	0	Reversal_Task			1	1	56	0	29	8	37	left	40		1.5	14.5
6.4.2	Reversal_Task	1	2021-07-20	16:59:51	45	1010	50	89	12.7018141221957776565	17.4522583709220064918	40	2000	7	0	1	practice	0	12.7018141221957776565	17.4522583709220064918	0.8000000000000000444	0.2000000000000000111	CRCF	0	0	0	0	Reversal_Task			1	1	56	0	30	8	37	left	40		1.5	15
6.4.2	Reversal_Task	1	2021-07-20	16:59:51	45	91	50	89	12.7018141221957776565	17.4522583709220064918	40	2000	7	0	1	practice	0	12.7018141221957776565	17.4522583709220064918	0.8000000000000000444	0.2000000000000000111	CRCF	0	0	0	0	Reversal_Task			1	1	57	0	30	9	37	left	40		1.5	15
6.4.2	Reversal_Task	1	2021-07-20	16:59:51	45	91	50	89	12.7018141221957776565	17.4522583709220064918	40	2000	7	0	1	practice	0	12.7018141221957776565	17.4522583709220064918	0.8000000000000000444	0.2000000000000000111	CRCF	0	0	0	0	Reversal_Task			1	1	57	0	31	9	37	left	40		1.5	15.5
6.4.2	Reversal_Task	1	2021-07-20	16:59:51	0	3000	50	89	12.7018141221957776565	17.4522583709220064918	40	2000	7	0	1	practice	0	12.7018141221957776565	17.4522583709220064918	0.8000000000000000444	0.2000000000000000111	IRCF	0	0	0	0	Reversal_Task			-1	-1	58	0	31	9	38	left	40		1.5	15.5
6.4.2	Reversal_Task	1	2021-07-20	16:59:51	0	3000	50	89	12.7018141221957776565	17.4522583709220064918	40	2000	7	0	1	practice	0	12.7018141221957776565	17.4522583709220064918	0.8000000000000000444	0.2000000000000000111	IRCF	0	0	0	0	Reversal_Task			-1	-1	58	0	31	9	38	left	40		1.5	15.5
6.4.2	Reversal_Task	1	2021-07-20	16:59:51	0	3000	50	89	12.7018141221957776565	17.4522583709220064918	40	2000	7	0	1	practice	0	12.7018141221957776565	17.4522583709220064918	0.8000000000000000444	0.2000000000000000111	IRIF	0	0	0	0	Reversal_Task			-1	1	59	0	31	9	39	left	40		1.5	15.5
6.4.2	Reversal_Task	1	2021-07-20	16:59:51	0	3000	50	89	12.7018141221957776565	17.4522583709220064918	40	2000	7	0	1	practice	0	12.7018141221957776565	17.4522583709220064918	0.8000000000000000444	0.2000000000000000111	IRIF	0	0	0	0	Reversal_Task			-1	1	59	0	31	9	39	left	40		1.5	15.5
6.4.2	Reversal_Task	1	2021-07-20	16:59:51	0	3000	50	89	12.7018141221957776565	17.4522583709220064918	40	2000	7	0	1	practice	0	12.7018141221957776565	17.4522583709220064918	0.8000000000000000444	0.2000000000000000111	IRIF	0	0	0	0	Reversal_Task			-1	1	60	0	31	9	40	left	40		1.5	15.5
6.4.2	Reversal_Task	1	2021-07-20	16:59:51	0	3000	50	89	12.7018141221957776565	17.4522583709220064918	40	2000	7	0	1	practice	0	12.7018141221957776565	17.4522583709220064918	0.8000000000000000444	0.2000000000000000111	IRIF	0	0	0	0	Reversal_Task			-1	1	60	0	31	9	40	left	40		1.5	15.5
6.4.2	Reversal_Task	1	2021-07-20	16:59:51	0	3000	50	89	12.7018141221957776565	17.4522583709220064918	40	2000	7	0	1	practice	0	12.7018141221957776565	17.4522583709220064918	0.8000000000000000444	0.2000000000000000111	IRIF	0	0	0	0	Reversal_Task			-1	1	61	0	31	9	41	left	40		1.5	15.5
6.4.2	Reversal_Task	1	2021-07-20	16:59:51	0	3000	50	89	12.7018141221957776565	17.4522583709220064918	40	2000	7	0	1	practice	0	12.7018141221957776565	17.4522583709220064918	0.8000000000000000444	0.2000000000000000111	IRIF	0	0	0	0	Reversal_Task			-1	1	61	0	31	9	41	left	40		1.5	15.5
6.4.2	Reversal_Task	1	2021-07-20	16:59:51	0	3000	50	89	12.7018141221957776565	17.4522583709220064918	40	2000	7	0	1	practice	0	12.7018141221957776565	17.4522583709220064918	0.8000000000000000444	0.2000000000000000111	IRIF	0	0	0	0	Reversal_Task			-1	1	62	0	31	9	42	left	40		1.5	15.5
6.4.2	Reversal_Task	1	2021-07-20	16:59:51	0	3000	50	89	12.7018141221957776565	17.4522583709220064918	40	2000	7	0	1	practice	0	12.7018141221957776565	17.4522583709220064918	0.8000000000000000444	0.2000000000000000111	IRIF	0	0	0	0	Reversal_Task			-1	1	62	0	31	9	42	left	40		1.5	15.5
6.4.2	Reversal_Task	1	2021-07-20	16:59:51	0	3000	50	89	12.7018141221957776565	17.4522583709220064918	40	2000	7	0	1	practice	0	12.7018141221957776565	17.4522583709220064918	0.8000000000000000444	0.2000000000000000111	IRCF	0	0	0	0	Reversal_Task			-1	-1	63	0	31	9	43	left	40		1.5	15.5
6.4.2	Reversal_Task	1	2021-07-20	16:59:51	0	3000	50	89	12.7018141221957776565	17.4522583709220064918	40	2000	7	0	1	practice	0	12.7018141221957776565	17.4522583709220064918	0.8000000000000000444	0.2000000000000000111	IRCF	0	0	0	0	Reversal_Task			-1	-1	63	0	31	9	43	left	40		1.5	15.5
6.4.2	Reversal_Task	1	2021-07-20	16:59:51	0	3000	50	89	12.7018141221957776565	17.4522583709220064918	40	2000	7	0	1	practice	0	12.7018141221957776565	17.4522583709220064918	0.8000000000000000444	0.2000000000000000111	IRIF	0	0	0	0	Reversal_Task			-1	1	64	0	31	9	44	left	40		1.5	15.5
6.4.2	Reversal_Task	1	2021-07-20	16:59:51	0	3000	50	89	12.7018141221957776565	17.4522583709220064918	40	2000	7	0	1	practice	0	12.7018141221957776565	17.4522583709220064918	0.8000000000000000444	0.2000000000000000111	IRIF	0	0	0	0	Reversal_Task			-1	1	64	0	31	9	44	left	40		1.5	15.5
6.4.2	Reversal_Task	1	2021-07-20	16:59:51	0	3000	50	89	12.7018141221957776565	17.4522583709220064918	40	2000	7	0	1	practice	0	12.7018141221957776565	17.4522583709220064918	0.8000000000000000444	0.2000000000000000111	IRIF	0	0	0	0	Reversal_Task			-1	1	65	0	31	9	45	left	40		1.5	15.5
6.4.2	Reversal_Task	1	2021-07-20	16:59:51	0	3000	50	89	12.7018141221957776565	17.4522583709220064918	40	2000	7	0	1	practice	0	12.7018141221957776565	17.4522583709220064918	0.8000000000000000444	0.2000000000000000111	IRIF	0	0	0	0	Reversal_Task			-1	1	65	0	31	9	45	left	40		1.5	15.5
6.4.2	Reversal_Task	1	2021-07-20	16:59:51	0	3000	50	89	12.7018141221957776565	17.4522583709220064918	40	2000	7	0	1	practice	0	12.7018141221957776565	17.4522583709220064918	0.8000000000000000444	0.2000000000000000111	IRIF	0	0	0	0	Reversal_Task			-1	1	66	0	31	9	46	left	40		1.5	15.5
6.4.2	Reversal_Task	1	2021-07-20	16:59:51	0	3000	50	89	12.7018141221957776565	17.4522583709220064918	40	2000	7	0	1	practice	0	12.7018141221957776565	17.4522583709220064918	0.8000000000000000444	0.2000000000000000111	IRIF	0	0	0	0	Reversal_Task			-1	1	66	0	31	9	46	left	40		1.5	15.5
6.4.2	Reversal_Task	1	2021-07-20	16:59:51	0	3000	50	89	12.7018141221957776565	17.4522583709220064918	40	2000	7	0	1	practice	0	12.7018141221957776565	17.4522583709220064918	0.8000000000000000444	0.2000000000000000111	IRIF	0	0	0	0	Reversal_Task			-1	1	67	0	31	9	47	left	40		1.5	15.5
6.4.2	Reversal_Task	1	2021-07-20	16:59:51	0	3000	50	89	12.7018141221957776565	17.4522583709220064918	40	2000	7	0	1	practice	0	12.7018141221957776565	17.4522583709220064918	0.8000000000000000444	0.2000000000000000111	IRIF	0	0	0	0	Reversal_Task			-1	1	67	0	31	9	47	left	40		1.5	15.5
6.4.2	Reversal_Task	1	2021-07-20	16:59:51	0	3000	50	89	12.7018141221957776565	17.4522583709220064918	40	2000	7	0	1	practice	0	12.7018141221957776565	17.4522583709220064918	0.8000000000000000444	0.2000000000000000111	IRIF	0	0	0	0	Reversal_Task			-1	1	68	0	31	9	48	left	40		1.5	15.5
6.4.2	Reversal_Task	1	2021-07-20	16:59:51	0	3000	50	89	12.7018141221957776565	17.4522583709220064918	40	2000	7	0	1	practice	0	12.7018141221957776565	17.4522583709220064918	0.8000000000000000444	0.2000000000000000111	IRIF	0	0	0	0	Reversal_Task			-1	1	68	0	31	9	48	left	40		1.5	15.5
6.4.2	Reversal_Task	1	2021-07-20	16:59:51	0	3000	50	89	12.7018141221957776565	17.4522583709220064918	40	2000	7	0	1	practice	0	12.7018141221957776565	17.4522583709220064918	0.8000000000000000444	0.2000000000000000111	IRIF	0	0	0	0	Reversal_Task			-1	1	69	0	31	9	49	left	40		1.5	15.5
6.4.2	Reversal_Task	1	2021-07-20	16:59:51	0	3000	50	89	12.7018141221957776565	17.4522583709220064918	40	2000	7	0	1	practice	0	12.7018141221957776565	17.4522583709220064918	0.8000000000000000444	0.2000000000000000111	IRIF	0	0	0	0	Reversal_Task			-1	1	69	0	31	9	49	left	40		1.5	15.5
6.4.2	Reversal_Task	1	2021-07-20	16:59:51	0	3000	50	89	12.7018141221957776565	17.4522583709220064918	40	2000	7	0	1	practice	0	12.7018141221957776565	17.4522583709220064918	0.8000000000000000444	0.2000000000000000111	IRIF	0	0	0	0	Reversal_Task			-1	1	70	0	31	9	50	left	40		1.5	15.5
6.4.2	Reversal_Task	1	2021-07-20	16:59:51	0	3000	50	89	12.7018141221957776565	17.4522583709220064918	40	2000	7	0	1	practice	0	12.7018141221957776565	17.4522583709220064918	0.8000000000000000444	0.2000000000000000111	IRIF	0	0	0	0	Reversal_Task			-1	1	70	0	31	9	50	left	40		1.5	15.5
6.4.2	Reversal_Task	1	2021-07-20	16:59:51	0	3000	50	89	12.7018141221957776565	17.4522583709220064918	40	2000	7	0	1	practice	0	12.7018141221957776565	17.4522583709220064918	0.8000000000000000444	0.2000000000000000111	IRIF	0	0	0	0	Reversal_Task			-1	1	71	0	31	9	51	left	40		1.5	15.5
6.4.2	Reversal_Task	1	2021-07-20	16:59:51	0	3000	50	89	12.7018141221957776565	17.4522583709220064918	40	2000	7	0	1	practice	0	12.7018141221957776565	17.4522583709220064918	0.8000000000000000444	0.2000000000000000111	IRIF	0	0	0	0	Reversal_Task			-1	1	71	0	31	9	51	left	40		1.5	15.5
6.4.2	Reversal_Task	1	2021-07-20	16:59:51	45	1223	50	89	12.7018141221957776565	17.4522583709220064918	40	2000	7	0	1	practice	0	12.7018141221957776565	17.4522583709220064918	0.8000000000000000444	0.2000000000000000111	CRCF	0	0	0	0	Reversal_Task			1	1	72	0	31	10	51	left	40		1.5	15.5
6.4.2	Reversal_Task	1	2021-07-20	16:59:51	45	1223	50	89	12.7018141221957776565	17.4522583709220064918	40	2000	7	0	1	practice	0	12.7018141221957776565	17.4522583709220064918	0.8000000000000000444	0.2000000000000000111	CRCF	0	0	0	0	Reversal_Task			1	1	72	0	32	10	51	left	40		1.5	16
6.4.2	Reversal_Task	1	2021-07-20	16:59:51	0	3000	50	89	12.7018141221957776565	17.4522583709220064918	40	2000	7	0	1	practice	0	12.7018141221957776565	17.4522583709220064918	0.8000000000000000444	0.2000000000000000111	IRIF	0	0	0	0	Reversal_Task			-1	1	73	0	32	10	52	left	40		1.5	16
6.4.2	Reversal_Task	1	2021-07-20	16:59:51	0	3000	50	89	12.7018141221957776565	17.4522583709220064918	40	2000	7	0	1	practice	0	12.7018141221957776565	17.4522583709220064918	0.8000000000000000444	0.2000000000000000111	IRIF	0	0	0	0	Reversal_Task			-1	1	73	0	32	10	52	left	40		1.5	16
6.4.2	Reversal_Task	1	2021-07-20	16:59:51	0	3000	50	89	12.7018141221957776565	17.4522583709220064918	40	2000	7	0	1	practice	0	12.7018141221957776565	17.4522583709220064918	0.8000000000000000444	0.2000000000000000111	IRIF	0	0	0	0	Reversal_Task			-1	1	74	0	32	10	53	left	40		1.5	16
6.4.2	Reversal_Task	1	2021-07-20	16:59:51	0	3000	50	89	12.7018141221957776565	17.4522583709220064918	40	2000	7	0	1	practice	0	12.7018141221957776565	17.4522583709220064918	0.8000000000000000444	0.2000000000000000111	IRIF	0	0	0	0	Reversal_Task			-1	1	74	0	32	10	53	left	40		1.5	16
6.4.2	Reversal_Task	1	2021-07-20	16:59:51	0	3000	50	89	12.7018141221957776565	17.4522583709220064918	40	2000	7	0	1	practice	0	12.7018141221957776565	17.4522583709220064918	0.8000000000000000444	0.2000000000000000111	IRCF	0	0	0	0	Reversal_Task			-1	-1	75	0	32	10	54	left	40		1.5	16
6.4.2	Reversal_Task	1	2021-07-20	16:59:51	0	3000	50	89	12.7018141221957776565	17.4522583709220064918	40	2000	7	0	1	practice	0	12.7018141221957776565	17.4522583709220064918	0.8000000000000000444	0.2000000000000000111	IRCF	0	0	0	0	Reversal_Task			-1	-1	75	0	32	10	54	left	40		1.5	16
6.4.2	Reversal_Task	1	2021-07-20	16:59:51	0	3000	50	89	12.7018141221957776565	17.4522583709220064918	40	2000	7	0	1	practice	0	12.7018141221957776565	17.4522583709220064918	0.8000000000000000444	0.2000000000000000111	IRIF	0	0	0	0	Reversal_Task			-1	1	76	0	32	10	55	left	40		1.5	16
6.4.2	Reversal_Task	1	2021-07-20	16:59:51	0	3000	50	89	12.7018141221957776565	17.4522583709220064918	40	2000	7	0	1	practice	0	12.7018141221957776565	17.4522583709220064918	0.8000000000000000444	0.2000000000000000111	IRIF	0	0	0	0	Reversal_Task			-1	1	76	0	32	10	55	left	40		1.5	16
6.4.2	Reversal_Task	1	2021-07-20	16:59:51	0	3000	50	89	12.7018141221957776565	17.4522583709220064918	40	2000	7	0	1	practice	0	12.7018141221957776565	17.4522583709220064918	0.8000000000000000444	0.2000000000000000111	IRIF	0	0	0	0	Reversal_Task			-1	1	77	0	32	10	56	left	40		1.5	16
6.4.2	Reversal_Task	1	2021-07-20	16:59:51	0	3000	50	89	12.7018141221957776565	17.4522583709220064918	40	2000	7	0	1	practice	0	12.7018141221957776565	17.4522583709220064918	0.8000000000000000444	0.2000000000000000111	IRIF	0	0	0	0	Reversal_Task			-1	1	77	0	32	10	56	left	40		1.5	16
6.4.2	Reversal_Task	1	2021-07-20	16:59:51	0	3000	50	89	12.7018141221957776565	17.4522583709220064918	40	2000	7	0	1	practice	0	12.7018141221957776565	17.4522583709220064918	0.8000000000000000444	0.2000000000000000111	IRCF	0	0	0	0	Reversal_Task			-1	-1	78	0	32	10	57	left	40		1.5	16
6.4.2	Reversal_Task	1	2021-07-20	16:59:51	0	3000	50	89	12.7018141221957776565	17.4522583709220064918	40	2000	7	0	1	practice	0	12.7018141221957776565	17.4522583709220064918	0.8000000000000000444	0.2000000000000000111	IRCF	0	0	0	0	Reversal_Task			-1	-1	78	0	32	10	57	left	40		1.5	16
6.4.2	Reversal_Task	1	2021-07-20	16:59:51	0	3000	50	89	12.7018141221957776565	17.4522583709220064918	40	2000	7	0	1	practice	0	12.7018141221957776565	17.4522583709220064918	0.8000000000000000444	0.2000000000000000111	IRCF	0	0	0	0	Reversal_Task			-1	-1	79	0	32	10	58	left	40		1.5	16
6.4.2	Reversal_Task	1	2021-07-20	16:59:51	0	3000	50	89	12.7018141221957776565	17.4522583709220064918	40	2000	7	0	1	practice	0	12.7018141221957776565	17.4522583709220064918	0.8000000000000000444	0.2000000000000000111	IRCF	0	0	0	0	Reversal_Task			-1	-1	79	0	32	10	58	left	40		1.5	16
6.4.2	Reversal_Task	1	2021-07-20	16:59:51	0	3000	50	89	12.7018141221957776565	17.4522583709220064918	40	2000	7	0	1	practice	0	12.7018141221957776565	17.4522583709220064918	0.8000000000000000444	0.2000000000000000111	IRIF	0	0	0	0	Reversal_Task			-1	1	80	0	32	10	59	left	40		1.5	16
6.4.2	Reversal_Task	1	2021-07-20	16:59:51	0	3000	50	89	12.7018141221957776565	17.4522583709220064918	40	2000	7	0	2	practice	0	12.7018141221957776565	17.4522583709220064918	0.8000000000000000444	0.2000000000000000111	IRIF	0	0	0	0	Reversal_Task			-1	1	80	0	32	10	59	left	40		1.5	16
6.4.2	Reversal_Task	1	2021-07-20	16:59:51	0	3000	50	89	12.7018141221957776565	17.4522583709220064918	40	2000	7	0	2	practice	0	25.4218155535454428673	29.666586927759130532	0.8000000000000000444	0.2000000000000000111	IRIF	0	0	0	0	Reversal_Task			-1	1	0	0	32	0	0	left	37		1.5	16
6.4.2	Reversal_Task	1	2021-07-20	16:59:51	0	3000	50	89	1.3237464775619438573	37.0450827961426867319	40	2000	7	0	2	practice	0	1.3237464775619438573	37.0450827961426867319	0.8000000000000000444	0.2000000000000000111	IRIF	0	0	0	0	Reversal_Task			-1	1	1	0	0	0	1	left	37		17.5	0
6.4.2	Reversal_Task	1	2021-07-20	16:59:51	0	3000	50	89	1.3237464775619438573	37.0450827961426867319	40	2000	7	0	2	practice	0	1.3237464775619438573	37.0450827961426867319	0.8000000000000000444	0.2000000000000000111	IRIF	0	0	0	0	Reversal_Task			-1	1	1	0	0	0	1	left	37		17.5	0
6.4.2	Reversal_Task	1	2021-07-20	16:59:51	0	3000	50	89	1.3237464775619438573	37.0450827961426867319	40	2000	7	0	2	practice	0	1.3237464775619438573	37.0450827961426867319	0.8000000000000000444	0.2000000000000000111	IRIF	0	0	0	0	Reversal_Task			-1	1	2	0	0	0	2	left	37		17.5	0
6.4.2	Reversal_Task	1	2021-07-20	16:59:51	0	3000	50	89	1.3237464775619438573	37.0450827961426867319	40	2000	7	0	2	practice	0	1.3237464775619438573	37.0450827961426867319	0.8000000000000000444	0.2000000000000000111	IRIF	0	0	0	0	Reversal_Task			-1	1	2	0	0	0	2	left	37		17.5	0
6.4.2	Reversal_Task	1	2021-07-20	16:59:51	0	3000	50	89	1.3237464775619438573	37.0450827961426867319	40	2000	7	0	2	practice	0	1.3237464775619438573	37.0450827961426867319	0.8000000000000000444	0.2000000000000000111	IRIF	0	0	0	0	Reversal_Task			-1	1	3	0	0	0	3	left	37		17.5	0
6.4.2	Reversal_Task	1	2021-07-20	16:59:51	0	3000	50	89	1.3237464775619438573	37.0450827961426867319	40	2000	7	0	2	practice	0	1.3237464775619438573	37.0450827961426867319	0.8000000000000000444	0.2000000000000000111	IRIF	0	0	0	0	Reversal_Task			-1	1	3	0	0	0	3	left	37		17.5	0
6.4.2	Reversal_Task	1	2021-07-20	16:59:51	45	776	50	89	1.3237464775619438573	37.0450827961426867319	40	2000	7	0	2	practice	0	1.3237464775619438573	37.0450827961426867319	0.8000000000000000444	0.2000000000000000111	CRCF	0	0	0	0	Reversal_Task			1	1	4	0	0	1	3	left	37		17.5	0
6.4.2	Reversal_Task	1	2021-07-20	16:59:51	45	776	50	89	1.3237464775619438573	37.0450827961426867319	40	2000	7	0	2	practice	0	1.3237464775619438573	37.0450827961426867319	0.8000000000000000444	0.2000000000000000111	CRCF	0	0	0	0	Reversal_Task			1	1	4	0	1	1	3	left	37		17.5	0.5
6.4.2	Reversal_Task	1	2021-07-20	16:59:51	45	44	50	89	1.3237464775619438573	37.0450827961426867319	40	2000	7	0	2	practice	0	1.3237464775619438573	37.0450827961426867319	0.8000000000000000444	0.2000000000000000111	CRCF	0	0	0	0	Reversal_Task			1	1	5	0	1	2	3	left	37		17.5	0.5
6.4.2	Reversal_Task	1	2021-07-20	16:59:51	45	44	50	89	1.3237464775619438573	37.0450827961426867319	40	2000	7	0	2	practice	0	1.3237464775619438573	37.0450827961426867319	0.8000000000000000444	0.2000000000000000111	CRCF	0	0	0	0	Reversal_Task			1	1	5	0	2	2	3	left	37		17.5	1
6.4.2	Reversal_Task	1	2021-07-20	16:59:51	45	139	50	89	1.3237464775619438573	37.0450827961426867319	40	2000	7	0	2	practice	0	1.3237464775619438573	37.0450827961426867319	0.8000000000000000444	0.2000000000000000111	CRIF	0	0	0	0	Reversal_Task			1	-1	6	0	2	3	3	left	37		17.5	1
6.4.2	Reversal_Task	1	2021-07-20	16:59:51	45	139	50	89	1.3237464775619438573	37.0450827961426867319	40	2000	7	0	2	practice	0	1.3237464775619438573	37.0450827961426867319	0.8000000000000000444	0.2000000000000000111	CRIF	0	0	0	0	Reversal_Task			1	-1	6	0	2	3	3	left	37		17.5	1
6.4.2	Reversal_Task	1	2021-07-20	16:59:51	45	183	50	89	1.3237464775619438573	37.0450827961426867319	40	2000	7	0	2	practice	0	1.3237464775619438573	37.0450827961426867319	0.8000000000000000444	0.2000000000000000111	CRCF	0	0	0	0	Reversal_Task			1	1	7	0	2	4	3	left	37		17.5	1
6.4.2	Reversal_Task	1	2021-07-20	16:59:51	45	183	50	89	1.3237464775619438573	37.0450827961426867319	40	2000	7	0	2	practice	0	1.3237464775619438573	37.0450827961426867319	0.8000000000000000444	0.2000000000000000111	CRCF	0	0	0	0	Reversal_Task			1	1	7	0	3	4	3	left	37		17.5	1.5
6.4.2	Reversal_Task	1	2021-07-20	16:59:51	45	154	50	89	1.3237464775619438573	37.0450827961426867319	40	2000	7	0	2	practice	0	1.3237464775619438573	37.0450827961426867319	0.8000000000000000444	0.2000000000000000111	CRCF	0	0	0	0	Reversal_Task			1	1	8	0	3	5	3	left	37		17.5	1.5
6.4.2	Reversal_Task	1	2021-07-20	16:59:51	45	154	50	89	1.3237464775619438573	37.0450827961426867319	40	2000	7	0	2	practice	0	1.3237464775619438573	37.0450827961426867319	0.8000000000000000444	0.2000000000000000111	CRCF	0	0	0	0	Reversal_Task			1	1	8	0	4	5	3	left	37		17.5	2
6.4.2	Reversal_Task	1	2021-07-20	16:59:51	45	200	50	89	1.3237464775619438573	37.0450827961426867319	40	2000	7	0	2	practice	0	1.3237464775619438573	37.0450827961426867319	0.8000000000000000444	0.2000000000000000111	CRCF	0	0	0	0	Reversal_Task			1	1	9	0	4	6	3	left	37		17.5	2
6.4.2	Reversal_Task	1	2021-07-20	16:59:51	45	200	50	89	1.3237464775619438573	37.0450827961426867319	40	2000	7	0	2	practice	0	1.3237464775619438573	37.0450827961426867319	0.8000000000000000444	0.2000000000000000111	CRCF	0	0	0	0	Reversal_Task			1	1	9	0	5	6	3	left	37		17.5	2.5
6.4.2	Reversal_Task	1	2021-07-20	16:59:51	45	234	50	89	1.3237464775619438573	37.0450827961426867319	40	2000	7	0	2	practice	0	1.3237464775619438573	37.0450827961426867319	0.8000000000000000444	0.2000000000000000111	CRCF	0	0	0	0	Reversal_Task			1	1	10	0	5	7	3	left	37		17.5	2.5
6.4.2	Reversal_Task	1	2021-07-20	16:59:51	45	234	50	89	1.3237464775619438573	37.0450827961426867319	40	2000	7	0	2	practice	0	1.3237464775619438573	37.0450827961426867319	0.8000000000000000444	0.2000000000000000111	CRCF	0	0	0	0	Reversal_Task			1	1	10	0	6	7	3	left	37		17.5	3
6.4.2	Reversal_Task	1	2021-07-20	16:59:51	45	1745	50	89	1.3237464775619438573	37.0450827961426867319	40	2000	7	0	2	practice	0	1.3237464775619438573	37.0450827961426867319	0.8000000000000000444	0.2000000000000000111	CRCF	0	0	0	0	Reversal_Task			1	1	11	0	6	8	3	left	37		17.5	3
6.4.2	Reversal_Task	1	2021-07-20	16:59:51	45	1745	50	89	1.3237464775619438573	37.0450827961426867319	40	2000	7	0	2	practice	0	1.3237464775619438573	37.0450827961426867319	0.8000000000000000444	0.2000000000000000111	CRCF	0	0	0	0	Reversal_Task			1	1	11	0	7	8	3	left	37		17.5	3.5
6.4.2	Reversal_Task	1	2021-07-20	16:59:51	0	3000	50	89	1.3237464775619438573	37.0450827961426867319	40	2000	7	0	2	practice	0	1.3237464775619438573	37.0450827961426867319	0.8000000000000000444	0.2000000000000000111	IRIF	0	0	0	0	Reversal_Task			-1	1	12	0	7	8	4	left	37		17.5	3.5
6.4.2	Reversal_Task	1	2021-07-20	16:59:51	0	3000	50	89	1.3237464775619438573	37.0450827961426867319	40	2000	7	0	2	practice	0	1.3237464775619438573	37.0450827961426867319	0.8000000000000000444	0.2000000000000000111	IRIF	0	0	0	0	Reversal_Task			-1	1	12	0	7	8	4	left	37		17.5	3.5
6.4.2	Reversal_Task	1	2021-07-20	16:59:51	0	3000	50	89	1.3237464775619438573	37.0450827961426867319	40	2000	7	0	2	practice	0	1.3237464775619438573	37.0450827961426867319	0.8000000000000000444	0.2000000000000000111	IRCF	0	0	0	0	Reversal_Task			-1	-1	13	0	7	8	5	left	37		17.5	3.5
6.4.2	Reversal_Task	1	2021-07-20	16:59:51	0	3000	50	89	1.3237464775619438573	37.0450827961426867319	40	2000	7	0	2	practice	0	1.3237464775619438573	37.0450827961426867319	0.8000000000000000444	0.2000000000000000111	IRCF	0	0	0	0	Reversal_Task			-1	-1	13	0	7	8	5	left	37		17.5	3.5
6.4.2	Reversal_Task	1	2021-07-20	16:59:51	0	3000	50	89	1.3237464775619438573	37.0450827961426867319	40	2000	7	0	2	practice	0	1.3237464775619438573	37.0450827961426867319	0.8000000000000000444	0.2000000000000000111	IRIF	0	0	0	0	Reversal_Task			-1	1	14	0	7	8	6	left	37		17.5	3.5
6.4.2	Reversal_Task	1	2021-07-20	16:59:51	0	3000	50	89	1.3237464775619438573	37.0450827961426867319	40	2000	7	0	2	practice	0	1.3237464775619438573	37.0450827961426867319	0.8000000000000000444	0.2000000000000000111	IRIF	0	0	0	0	Reversal_Task			-1	1	14	0	7	8	6	left	37		17.5	3.5
6.4.2	Reversal_Task	1	2021-07-20	16:59:51	0	3000	50	89	1.3237464775619438573	37.0450827961426867319	40	2000	7	0	2	practice	0	1.3237464775619438573	37.0450827961426867319	0.8000000000000000444	0.2000000000000000111	IRCF	0	0	0	0	Reversal_Task			-1	-1	15	0	7	8	7	left	37		17.5	3.5
6.4.2	Reversal_Task	1	2021-07-20	16:59:51	0	3000	50	89	1.3237464775619438573	37.0450827961426867319	40	2000	7	0	2	practice	0	1.3237464775619438573	37.0450827961426867319	0.8000000000000000444	0.2000000000000000111	IRCF	0	0	0	0	Reversal_Task			-1	-1	15	0	7	8	7	left	37		17.5	3.5
6.4.2	Reversal_Task	1	2021-07-20	16:59:51	0	3000	50	89	1.3237464775619438573	37.0450827961426867319	40	2000	7	0	2	practice	0	1.3237464775619438573	37.0450827961426867319	0.8000000000000000444	0.2000000000000000111	IRIF	0	0	0	0	Reversal_Task			-1	1	16	0	7	8	8	left	37		17.5	3.5
6.4.2	Reversal_Task	1	2021-07-20	16:59:51	0	3000	50	89	1.3237464775619438573	37.0450827961426867319	40	2000	7	0	2	practice	0	1.3237464775619438573	37.0450827961426867319	0.8000000000000000444	0.2000000000000000111	IRIF	0	0	0	0	Reversal_Task			-1	1	16	0	7	8	8	left	37		17.5	3.5
6.4.2	Reversal_Task	1	2021-07-20	16:59:51	0	3000	50	89	1.3237464775619438573	37.0450827961426867319	40	2000	7	0	2	practice	0	1.3237464775619438573	37.0450827961426867319	0.8000000000000000444	0.2000000000000000111	IRIF	0	0	0	0	Reversal_Task			-1	1	17	0	7	8	9	left	37		17.5	3.5
6.4.2	Reversal_Task	1	2021-07-20	16:59:51	0	3000	50	89	1.3237464775619438573	37.0450827961426867319	40	2000	7	0	2	practice	0	1.3237464775619438573	37.0450827961426867319	0.8000000000000000444	0.2000000000000000111	IRIF	0	0	0	0	Reversal_Task			-1	1	17	0	7	8	9	left	37		17.5	3.5
6.4.2	Reversal_Task	1	2021-07-20	16:59:51	0	3000	50	89	1.3237464775619438573	37.0450827961426867319	40	2000	7	0	2	practice	0	1.3237464775619438573	37.0450827961426867319	0.8000000000000000444	0.2000000000000000111	IRIF	0	0	0	0	Reversal_Task			-1	1	18	0	7	8	10	left	37		17.5	3.5
6.4.2	Reversal_Task	1	2021-07-20	16:59:51	0	3000	50	89	1.3237464775619438573	37.0450827961426867319	40	2000	7	0	2	practice	0	1.3237464775619438573	37.0450827961426867319	0.8000000000000000444	0.2000000000000000111	IRIF	0	0	0	0	Reversal_Task			-1	1	18	0	7	8	10	left	37		17.5	3.5
6.4.2	Reversal_Task	1	2021-07-20	16:59:51	0	3000	50	89	1.3237464775619438573	37.0450827961426867319	40	2000	7	0	2	practice	0	1.3237464775619438573	37.0450827961426867319	0.8000000000000000444	0.2000000000000000111	IRIF	0	0	0	0	Reversal_Task			-1	1	19	0	7	8	11	left	37		17.5	3.5
6.4.2	Reversal_Task	1	2021-07-20	16:59:51	0	3000	50	89	1.3237464775619438573	37.0450827961426867319	40	2000	7	0	2	practice	0	1.3237464775619438573	37.0450827961426867319	0.8000000000000000444	0.2000000000000000111	IRIF	0	0	0	0	Reversal_Task			-1	1	19	0	7	8	11	left	37		17.5	3.5
6.4.2	Reversal_Task	1	2021-07-20	16:59:51	0	3000	50	89	1.3237464775619438573	37.0450827961426867319	40	2000	7	0	2	practice	0	1.3237464775619438573	37.0450827961426867319	0.8000000000000000444	0.2000000000000000111	IRIF	0	0	0	0	Reversal_Task			-1	1	20	0	7	8	12	left	37		17.5	3.5
6.4.2	Reversal_Task	1	2021-07-20	16:59:51	0	3000	50	89	1.3237464775619438573	37.0450827961426867319	40	2000	7	0	2	practice	0	1.3237464775619438573	37.0450827961426867319	0.8000000000000000444	0.2000000000000000111	IRIF	0	0	0	0	Reversal_Task			-1	1	20	0	7	8	12	left	37		17.5	3.5
6.4.2	Reversal_Task	1	2021-07-20	16:59:51	0	3000	50	89	1.3237464775619438573	37.0450827961426867319	40	2000	7	0	2	practice	0	1.3237464775619438573	37.0450827961426867319	0.8000000000000000444	0.2000000000000000111	IRCF	0	0	0	0	Reversal_Task			-1	-1	21	0	7	8	13	left	37		17.5	3.5
6.4.2	Reversal_Task	1	2021-07-20	16:59:51	0	3000	50	89	1.3237464775619438573	37.0450827961426867319	40	2000	7	0	2	practice	0	1.3237464775619438573	37.0450827961426867319	0.8000000000000000444	0.2000000000000000111	IRCF	0	0	0	0	Reversal_Task			-1	-1	21	0	7	8	13	left	37		17.5	3.5
6.4.2	Reversal_Task	1	2021-07-20	16:59:51	0	3000	50	89	1.3237464775619438573	37.0450827961426867319	40	2000	7	0	2	practice	0	1.3237464775619438573	37.0450827961426867319	0.8000000000000000444	0.2000000000000000111	IRIF	0	0	0	0	Reversal_Task			-1	1	22	0	7	8	14	left	37		17.5	3.5
6.4.2	Reversal_Task	1	2021-07-20	16:59:51	0	3000	50	89	1.3237464775619438573	37.0450827961426867319	40	2000	7	0	2	practice	0	1.3237464775619438573	37.0450827961426867319	0.8000000000000000444	0.2000000000000000111	IRIF	0	0	0	0	Reversal_Task			-1	1	22	0	7	8	14	left	37		17.5	3.5
6.4.2	Reversal_Task	1	2021-07-20	16:59:51	50	190	50	89	1.3237464775619438573	37.0450827961426867319	40	2000	7	0	2	practice	0	1.3237464775619438573	37.0450827961426867319	0.8000000000000000444	0.2000000000000000111	IRIF	0	0	0	0	Reversal_Task			-1	1	23	0	7	8	15	left	37		17.5	3.5
6.4.2	Reversal_Task	1	2021-07-20	16:59:51	50	190	50	89	1.3237464775619438573	37.0450827961426867319	40	2000	7	0	2	practice	0	1.3237464775619438573	37.0450827961426867319	0.8000000000000000444	0.2000000000000000111	IRIF	0	0	0	0	Reversal_Task			-1	1	23	0	7	8	15	left	37		17.5	3.5
6.4.2	Reversal_Task	1	2021-07-20	16:59:51	45	14	50	89	1.3237464775619438573	37.0450827961426867319	40	2000	7	0	2	practice	0	1.3237464775619438573	37.0450827961426867319	0.8000000000000000444	0.2000000000000000111	CRCF	0	0	0	0	Reversal_Task			1	1	24	0	7	9	15	left	37		17.5	3.5
6.4.2	Reversal_Task	1	2021-07-20	16:59:51	45	14	50	89	1.3237464775619438573	37.0450827961426867319	40	2000	7	0	2	practice	0	1.3237464775619438573	37.0450827961426867319	0.8000000000000000444	0.2000000000000000111	CRCF	0	0	0	0	Reversal_Task			1	1	24	0	8	9	15	left	37		17.5	4
6.4.2	Reversal_Task	1	2021-07-20	16:59:51	45	250	50	89	1.3237464775619438573	37.0450827961426867319	40	2000	7	0	2	practice	0	1.3237464775619438573	37.0450827961426867319	0.8000000000000000444	0.2000000000000000111	CRCF	0	0	0	0	Reversal_Task			1	1	25	0	8	10	15	left	37		17.5	4
6.4.2	Reversal_Task	1	2021-07-20	16:59:51	45	250	50	89	1.3237464775619438573	37.0450827961426867319	40	2000	7	0	2	practice	0	1.3237464775619438573	37.0450827961426867319	0.8000000000000000444	0.2000000000000000111	CRCF	0	0	0	0	Reversal_Task			1	1	25	0	9	10	15	left	37		17.5	4.5
6.4.2	Reversal_Task	1	2021-07-20	16:59:51	50	120	50	89	1.3237464775619438573	37.0450827961426867319	40	2000	7	0	2	practice	0	1.3237464775619438573	37.0450827961426867319	0.8000000000000000444	0.2000000000000000111	IRIF	0	0	0	0	Reversal_Task			-1	1	26	0	9	10	16	left	37		17.5	4.5
6.4.2	Reversal_Task	1	2021-07-20	16:59:51	50	120	50	89	1.3237464775619438573	37.0450827961426867319	40	2000	7	0	2	practice	0	1.3237464775619438573	37.0450827961426867319	0.8000000000000000444	0.2000000000000000111	IRIF	0	0	0	0	Reversal_Task			-1	1	26	0	9	10	16	left	37		17.5	4.5
6.4.2	Reversal_Task	1	2021-07-20	16:59:51	0	3000	50	89	1.3237464775619438573	37.0450827961426867319	40	2000	7	0	2	practice	0	1.3237464775619438573	37.0450827961426867319	0.8000000000000000444	0.2000000000000000111	IRIF	0	0	0	0	Reversal_Task			-1	1	27	0	9	10	17	left	37		17.5	4.5
6.4.2	Reversal_Task	1	2021-07-20	16:59:51	0	3000	50	89	1.3237464775619438573	37.0450827961426867319	40	2000	7	0	2	practice	0	1.3237464775619438573	37.0450827961426867319	0.8000000000000000444	0.2000000000000000111	IRIF	0	0	0	0	Reversal_Task			-1	1	27	0	9	10	17	left	37		17.5	4.5
6.4.2	Reversal_Task	1	2021-07-20	16:59:51	0	3000	50	89	1.3237464775619438573	37.0450827961426867319	40	2000	7	0	2	practice	0	1.3237464775619438573	37.0450827961426867319	0.8000000000000000444	0.2000000000000000111	IRIF	0	0	0	0	Reversal_Task			-1	1	28	0	9	10	18	left	37		17.5	4.5
6.4.2	Reversal_Task	1	2021-07-20	16:59:51	0	3000	50	89	1.3237464775619438573	37.0450827961426867319	40	2000	7	0	2	practice	0	1.3237464775619438573	37.0450827961426867319	0.8000000000000000444	0.2000000000000000111	IRIF	0	0	0	0	Reversal_Task			-1	1	28	0	9	10	18	left	37		17.5	4.5
6.4.2	Reversal_Task	1	2021-07-20	16:59:51	0	3000	50	89	1.3237464775619438573	37.0450827961426867319	40	2000	7	0	2	practice	0	1.3237464775619438573	37.0450827961426867319	0.8000000000000000444	0.2000000000000000111	IRIF	0	0	0	0	Reversal_Task			-1	1	29	0	9	10	19	left	37		17.5	4.5
6.4.2	Reversal_Task	1	2021-07-20	16:59:51	0	3000	50	89	1.3237464775619438573	37.0450827961426867319	40	2000	7	0	2	practice	0	1.3237464775619438573	37.0450827961426867319	0.8000000000000000444	0.2000000000000000111	IRIF	0	0	0	0	Reversal_Task			-1	1	29	0	9	10	19	left	37		17.5	4.5
6.4.2	Reversal_Task	1	2021-07-20	16:59:51	0	3000	50	89	1.3237464775619438573	37.0450827961426867319	40	2000	7	0	2	practice	0	1.3237464775619438573	37.0450827961426867319	0.8000000000000000444	0.2000000000000000111	IRIF	0	0	0	0	Reversal_Task			-1	1	30	0	9	10	20	left	37		17.5	4.5
6.4.2	Reversal_Task	1	2021-07-20	16:59:51	0	3000	50	89	1.3237464775619438573	37.0450827961426867319	40	2000	7	0	2	practice	0	1.3237464775619438573	37.0450827961426867319	0.8000000000000000444	0.2000000000000000111	IRIF	0	0	0	0	Reversal_Task			-1	1	30	0	9	10	20	left	37		17.5	4.5
6.4.2	Reversal_Task	1	2021-07-20	16:59:51	0	3000	50	89	1.3237464775619438573	37.0450827961426867319	40	2000	7	0	2	practice	0	1.3237464775619438573	37.0450827961426867319	0.8000000000000000444	0.2000000000000000111	IRIF	0	0	0	0	Reversal_Task			-1	1	31	0	9	10	21	left	37		17.5	4.5
6.4.2	Reversal_Task	1	2021-07-20	16:59:51	0	3000	50	89	1.3237464775619438573	37.0450827961426867319	40	2000	7	0	2	practice	0	1.3237464775619438573	37.0450827961426867319	0.8000000000000000444	0.2000000000000000111	IRIF	0	0	0	0	Reversal_Task			-1	1	31	0	9	10	21	left	37		17.5	4.5
6.4.2	Reversal_Task	1	2021-07-20	16:59:51	0	3000	50	89	1.3237464775619438573	37.0450827961426867319	40	2000	7	0	2	practice	0	1.3237464775619438573	37.0450827961426867319	0.8000000000000000444	0.2000000000000000111	IRCF	0	0	0	0	Reversal_Task			-1	-1	32	0	9	10	22	left	37		17.5	4.5
6.4.2	Reversal_Task	1	2021-07-20	16:59:51	0	3000	50	89	1.3237464775619438573	37.0450827961426867319	40	2000	7	0	2	practice	0	1.3237464775619438573	37.0450827961426867319	0.8000000000000000444	0.2000000000000000111	IRCF	0	0	0	0	Reversal_Task			-1	-1	32	0	9	10	22	left	37		17.5	4.5
6.4.2	Reversal_Task	1	2021-07-20	16:59:51	0	3000	50	89	1.3237464775619438573	37.0450827961426867319	40	2000	7	0	2	practice	0	1.3237464775619438573	37.0450827961426867319	0.8000000000000000444	0.2000000000000000111	IRIF	0	0	0	0	Reversal_Task			-1	1	33	0	9	10	23	left	37		17.5	4.5
6.4.2	Reversal_Task	1	2021-07-20	16:59:51	0	3000	50	89	1.3237464775619438573	37.0450827961426867319	40	2000	7	0	2	practice	0	1.3237464775619438573	37.0450827961426867319	0.8000000000000000444	0.2000000000000000111	IRIF	0	0	0	0	Reversal_Task			-1	1	33	0	9	10	23	left	37		17.5	4.5
6.4.2	Reversal_Task	1	2021-07-20	16:59:51	0	3000	50	89	1.3237464775619438573	37.0450827961426867319	40	2000	7	0	2	practice	0	1.3237464775619438573	37.0450827961426867319	0.8000000000000000444	0.2000000000000000111	IRCF	0	0	0	0	Reversal_Task			-1	-1	34	0	9	10	24	left	37		17.5	4.5
6.4.2	Reversal_Task	1	2021-07-20	16:59:51	0	3000	50	89	1.3237464775619438573	37.0450827961426867319	40	2000	7	0	2	practice	0	1.3237464775619438573	37.0450827961426867319	0.8000000000000000444	0.2000000000000000111	IRCF	0	0	0	0	Reversal_Task			-1	-1	34	0	9	10	24	left	37		17.5	4.5
6.4.2	Reversal_Task	1	2021-07-20	16:59:51	0	3000	50	89	1.3237464775619438573	37.0450827961426867319	40	2000	7	0	2	practice	0	1.3237464775619438573	37.0450827961426867319	0.8000000000000000444	0.2000000000000000111	IRCF	0	0	0	0	Reversal_Task			-1	-1	35	0	9	10	25	left	37		17.5	4.5
6.4.2	Reversal_Task	1	2021-07-20	16:59:51	0	3000	50	89	1.3237464775619438573	37.0450827961426867319	40	2000	7	0	2	practice	0	1.3237464775619438573	37.0450827961426867319	0.8000000000000000444	0.2000000000000000111	IRCF	0	0	0	0	Reversal_Task			-1	-1	35	0	9	10	25	left	37		17.5	4.5
6.4.2	Reversal_Task	1	2021-07-20	16:59:51	0	3000	50	89	1.3237464775619438573	37.0450827961426867319	40	2000	7	0	2	practice	0	1.3237464775619438573	37.0450827961426867319	0.8000000000000000444	0.2000000000000000111	IRIF	0	0	0	0	Reversal_Task			-1	1	36	0	9	10	26	left	37		17.5	4.5
6.4.2	Reversal_Task	1	2021-07-20	16:59:51	0	3000	50	89	1.3237464775619438573	37.0450827961426867319	40	2000	7	0	2	practice	0	1.3237464775619438573	37.0450827961426867319	0.8000000000000000444	0.2000000000000000111	IRIF	0	0	0	0	Reversal_Task			-1	1	36	0	9	10	26	left	37		17.5	4.5
6.4.2	Reversal_Task	1	2021-07-20	16:59:51	0	3000	50	89	1.3237464775619438573	37.0450827961426867319	40	2000	7	0	2	practice	0	1.3237464775619438573	37.0450827961426867319	0.8000000000000000444	0.2000000000000000111	IRIF	0	0	0	0	Reversal_Task			-1	1	37	0	9	10	27	left	37		17.5	4.5
6.4.2	Reversal_Task	1	2021-07-20	16:59:51	0	3000	50	89	1.3237464775619438573	37.0450827961426867319	40	2000	7	0	2	practice	0	1.3237464775619438573	37.0450827961426867319	0.8000000000000000444	0.2000000000000000111	IRIF	0	0	0	0	Reversal_Task			-1	1	37	0	9	10	27	left	37		17.5	4.5
6.4.2	Reversal_Task	1	2021-07-20	16:59:51	0	3000	50	1542	1.3237464775619438573	37.0450827961426867319	40	2000	7	0	2	practice	0	1.3237464775619438573	37.0450827961426867319	0.2000000000000000111	0.8000000000000000444	CRCF	0	0	0	0	Reversal_Task			1	1	38	0	9	10	28	right	37		17.5	4.5
6.4.2	Reversal_Task	1	2021-07-20	16:59:51	0	3000	50	1542	1.3237464775619438573	37.0450827961426867319	40	2000	7	0	2	practice	0	1.3237464775619438573	37.0450827961426867319	0.2000000000000000111	0.8000000000000000444	CRCF	0	0	0	0	Reversal_Task			1	1	38	0	10	10	28	right	37		17.5	5
6.4.2	Reversal_Task	1	2021-07-20	16:59:51	0	3000	50	207	1.3237464775619438573	37.0450827961426867319	40	2000	7	0	2	practice	0	1.3237464775619438573	37.0450827961426867319	0.2000000000000000111	0.8000000000000000444	CRCF	0	0	0	0	Reversal_Task			1	1	39	0	10	10	29	right	37		17.5	5
6.4.2	Reversal_Task	1	2021-07-20	16:59:51	0	3000	50	207	1.3237464775619438573	37.0450827961426867319	40	2000	7	0	2	practice	0	1.3237464775619438573	37.0450827961426867319	0.2000000000000000111	0.8000000000000000444	CRCF	0	0	0	0	Reversal_Task			1	1	39	0	11	10	29	right	37		17.5	5.5
6.4.2	Reversal_Task	1	2021-07-20	16:59:51	0	3000	50	219	1.3237464775619438573	37.0450827961426867319	40	2000	7	0	2	practice	0	1.3237464775619438573	37.0450827961426867319	0.2000000000000000111	0.8000000000000000444	CRIF	0	0	0	0	Reversal_Task			1	-1	40	0	11	10	30	right	37		17.5	5.5
6.4.2	Reversal_Task	1	2021-07-20	16:59:51	0	3000	50	219	1.3237464775619438573	37.0450827961426867319	40	2000	7	0	2	practice	0	1.3237464775619438573	37.0450827961426867319	0.2000000000000000111	0.8000000000000000444	CRIF	0	0	0	0	Reversal_Task			1	-1	40	0	11	10	30	right	37		17.5	5.5
6.4.2	Reversal_Task	1	2021-07-20	16:59:51	0	3000	45	2293	1.3237464775619438573	37.0450827961426867319	40	2000	7	0	2	practice	0	1.3237464775619438573	37.0450827961426867319	0.2000000000000000111	0.8000000000000000444	IRIF	0	0	0	0	Reversal_Task			-1	1	41	0	11	11	30	right	37		17.5	5.5
6.4.2	Reversal_Task	1	2021-07-20	16:59:51	0	3000	45	2293	1.3237464775619438573	37.0450827961426867319	40	2000	7	0	2	practice	0	1.3237464775619438573	37.0450827961426867319	0.2000000000000000111	0.8000000000000000444	IRIF	0	0	0	0	Reversal_Task			-1	1	41	0	11	11	30	right	37		17.5	5.5
6.4.2	Reversal_Task	1	2021-07-20	16:59:51	0	3000	0	3000	1.3237464775619438573	37.0450827961426867319	40	2000	7	0	2	practice	0	1.3237464775619438573	37.0450827961426867319	0.2000000000000000111	0.8000000000000000444	IRIF	0	0	0	0	Reversal_Task			-1	1	42	0	11	11	30	right	37		17.5	5.5
6.4.2	Reversal_Task	1	2021-07-20	16:59:51	0	3000	0	3000	1.3237464775619438573	37.0450827961426867319	40	2000	7	0	2	practice	0	1.3237464775619438573	37.0450827961426867319	0.2000000000000000111	0.8000000000000000444	IRIF	0	0	0	0	Reversal_Task			-1	1	42	0	11	11	30	right	37		17.5	5.5
6.4.2	Reversal_Task	1	2021-07-20	16:59:51	0	3000	0	3000	1.3237464775619438573	37.0450827961426867319	40	2000	7	0	2	practice	0	1.3237464775619438573	37.0450827961426867319	0.2000000000000000111	0.8000000000000000444	IRIF	0	0	0	0	Reversal_Task			-1	1	43	0	11	11	30	right	37		17.5	5.5
6.4.2	Reversal_Task	1	2021-07-20	16:59:51	0	3000	0	3000	1.3237464775619438573	37.0450827961426867319	40	2000	7	0	2	practice	0	1.3237464775619438573	37.0450827961426867319	0.2000000000000000111	0.8000000000000000444	IRIF	0	0	0	0	Reversal_Task			-1	1	43	0	11	11	30	right	37		17.5	5.5
6.4.2	Reversal_Task	1	2021-07-20	16:59:51	0	3000	0	3000	1.3237464775619438573	37.0450827961426867319	40	2000	7	0	2	practice	0	1.3237464775619438573	37.0450827961426867319	0.2000000000000000111	0.8000000000000000444	IRIF	0	0	0	0	Reversal_Task			-1	1	44	0	11	11	30	right	37		17.5	5.5
6.4.2	Reversal_Task	1	2021-07-20	16:59:51	0	3000	0	3000	1.3237464775619438573	37.0450827961426867319	40	2000	7	0	2	practice	0	1.3237464775619438573	37.0450827961426867319	0.2000000000000000111	0.8000000000000000444	IRIF	0	0	0	0	Reversal_Task			-1	1	44	0	11	11	30	right	37		17.5	5.5
6.4.2	Reversal_Task	1	2021-07-20	16:59:51	0	3000	0	3000	1.3237464775619438573	37.0450827961426867319	40	2000	7	0	2	practice	0	1.3237464775619438573	37.0450827961426867319	0.2000000000000000111	0.8000000000000000444	IRIF	0	0	0	0	Reversal_Task			-1	1	45	0	11	11	30	right	37		17.5	5.5
6.4.2	Reversal_Task	1	2021-07-20	16:59:51	0	3000	0	3000	1.3237464775619438573	37.0450827961426867319	40	2000	7	0	2	practice	0	1.3237464775619438573	37.0450827961426867319	0.2000000000000000111	0.8000000000000000444	IRIF	0	0	0	0	Reversal_Task			-1	1	45	0	11	11	30	right	37		17.5	5.5
6.4.2	Reversal_Task	1	2021-07-20	16:59:51	0	3000	0	3000	1.3237464775619438573	37.0450827961426867319	40	2000	7	0	2	practice	0	1.3237464775619438573	37.0450827961426867319	0.2000000000000000111	0.8000000000000000444	IRIF	0	0	0	0	Reversal_Task			-1	1	46	0	11	11	30	right	37		17.5	5.5
6.4.2	Reversal_Task	1	2021-07-20	16:59:51	0	3000	0	3000	1.3237464775619438573	37.0450827961426867319	40	2000	7	0	2	practice	0	1.3237464775619438573	37.0450827961426867319	0.2000000000000000111	0.8000000000000000444	IRIF	0	0	0	0	Reversal_Task			-1	1	46	0	11	11	30	right	37		17.5	5.5
6.4.2	Reversal_Task	1	2021-07-20	16:59:51	0	3000	0	3000	1.3237464775619438573	37.0450827961426867319	40	2000	7	0	2	practice	0	1.3237464775619438573	37.0450827961426867319	0.2000000000000000111	0.8000000000000000444	IRIF	0	0	0	0	Reversal_Task			-1	1	47	0	11	11	30	right	37		17.5	5.5
6.4.2	Reversal_Task	1	2021-07-20	16:59:51	0	3000	0	3000	1.3237464775619438573	37.0450827961426867319	40	2000	7	0	2	practice	0	1.3237464775619438573	37.0450827961426867319	0.2000000000000000111	0.8000000000000000444	IRIF	0	0	0	0	Reversal_Task			-1	1	47	0	11	11	30	right	37		17.5	5.5
6.4.2	Reversal_Task	1	2021-07-20	16:59:51	0	3000	0	3000	1.3237464775619438573	37.0450827961426867319	40	2000	7	0	2	practice	0	1.3237464775619438573	37.0450827961426867319	0.2000000000000000111	0.8000000000000000444	IRIF	0	0	0	0	Reversal_Task			-1	1	48	0	11	11	30	right	37		17.5	5.5
6.4.2	Reversal_Task	1	2021-07-20	16:59:51	0	3000	0	3000	1.3237464775619438573	37.0450827961426867319	40	2000	7	0	2	practice	0	1.3237464775619438573	37.0450827961426867319	0.2000000000000000111	0.8000000000000000444	IRIF	0	0	0	0	Reversal_Task			-1	1	48	0	11	11	30	right	37		17.5	5.5
6.4.2	Reversal_Task	1	2021-07-20	16:59:51	0	3000	0	3000	1.3237464775619438573	37.0450827961426867319	40	2000	7	0	2	practice	0	1.3237464775619438573	37.0450827961426867319	0.2000000000000000111	0.8000000000000000444	IRIF	0	0	0	0	Reversal_Task			-1	1	49	0	11	11	30	right	37		17.5	5.5
6.4.2	Reversal_Task	1	2021-07-20	16:59:51	0	3000	0	3000	1.3237464775619438573	37.0450827961426867319	40	2000	7	0	2	practice	0	1.3237464775619438573	37.0450827961426867319	0.2000000000000000111	0.8000000000000000444	IRIF	0	0	0	0	Reversal_Task			-1	1	49	0	11	11	30	right	37		17.5	5.5
6.4.2	Reversal_Task	1	2021-07-20	16:59:51	0	3000	0	3000	1.3237464775619438573	37.0450827961426867319	40	2000	7	0	2	practice	0	1.3237464775619438573	37.0450827961426867319	0.2000000000000000111	0.8000000000000000444	IRIF	0	0	0	0	Reversal_Task			-1	1	50	0	11	11	30	right	37		17.5	5.5
6.4.2	Reversal_Task	1	2021-07-20	16:59:51	0	3000	0	3000	1.3237464775619438573	37.0450827961426867319	40	2000	7	0	2	practice	0	1.3237464775619438573	37.0450827961426867319	0.2000000000000000111	0.8000000000000000444	IRIF	0	0	0	0	Reversal_Task			-1	1	50	0	11	11	30	right	37		17.5	5.5
6.4.2	Reversal_Task	1	2021-07-20	16:59:51	0	3000	0	3000	1.3237464775619438573	37.0450827961426867319	40	2000	7	0	2	practice	0	1.3237464775619438573	37.0450827961426867319	0.2000000000000000111	0.8000000000000000444	IRIF	0	0	0	0	Reversal_Task			-1	1	51	0	11	11	30	right	37		17.5	5.5
6.4.2	Reversal_Task	1	2021-07-20	16:59:51	0	3000	0	3000	1.3237464775619438573	37.0450827961426867319	40	2000	7	0	2	practice	0	1.3237464775619438573	37.0450827961426867319	0.2000000000000000111	0.8000000000000000444	IRIF	0	0	0	0	Reversal_Task			-1	1	51	0	11	11	30	right	37		17.5	5.5
6.4.2	Reversal_Task	1	2021-07-20	16:59:51	0	3000	0	3000	1.3237464775619438573	37.0450827961426867319	40	2000	7	0	2	practice	0	1.3237464775619438573	37.0450827961426867319	0.2000000000000000111	0.8000000000000000444	IRIF	0	0	0	0	Reversal_Task			-1	1	52	0	11	11	30	right	37		17.5	5.5
6.4.2	Reversal_Task	1	2021-07-20	16:59:51	0	3000	0	3000	1.3237464775619438573	37.0450827961426867319	40	2000	7	0	2	practice	0	1.3237464775619438573	37.0450827961426867319	0.2000000000000000111	0.8000000000000000444	IRIF	0	0	0	0	Reversal_Task			-1	1	52	0	11	11	30	right	37		17.5	5.5
6.4.2	Reversal_Task	1	2021-07-20	16:59:51	0	3000	0	3000	1.3237464775619438573	37.0450827961426867319	40	2000	7	0	2	practice	0	1.3237464775619438573	37.0450827961426867319	0.2000000000000000111	0.8000000000000000444	IRIF	0	0	0	0	Reversal_Task			-1	1	53	0	11	11	30	right	37		17.5	5.5
6.4.2	Reversal_Task	1	2021-07-20	16:59:51	0	3000	0	3000	1.3237464775619438573	37.0450827961426867319	40	2000	7	0	2	practice	0	1.3237464775619438573	37.0450827961426867319	0.2000000000000000111	0.8000000000000000444	IRIF	0	0	0	0	Reversal_Task			-1	1	53	0	11	11	30	right	37		17.5	5.5
6.4.2	Reversal_Task	1	2021-07-20	16:59:51	0	3000	0	3000	1.3237464775619438573	37.0450827961426867319	40	2000	7	0	2	practice	0	1.3237464775619438573	37.0450827961426867319	0.2000000000000000111	0.8000000000000000444	IRIF	0	0	0	0	Reversal_Task			-1	1	54	0	11	11	30	right	37		17.5	5.5
6.4.2	Reversal_Task	1	2021-07-20	16:59:51	0	3000	0	3000	1.3237464775619438573	37.0450827961426867319	40	2000	7	0	2	practice	0	1.3237464775619438573	37.0450827961426867319	0.2000000000000000111	0.8000000000000000444	IRIF	0	0	0	0	Reversal_Task			-1	1	54	0	11	11	30	right	37		17.5	5.5
6.4.2	Reversal_Task	1	2021-07-20	16:59:51	0	3000	0	3000	1.3237464775619438573	37.0450827961426867319	40	2000	7	0	2	practice	0	1.3237464775619438573	37.0450827961426867319	0.2000000000000000111	0.8000000000000000444	IRIF	0	0	0	0	Reversal_Task			-1	1	55	0	11	11	30	right	37		17.5	5.5
6.4.2	Reversal_Task	1	2021-07-20	16:59:51	0	3000	0	3000	1.3237464775619438573	37.0450827961426867319	40	2000	7	0	2	practice	0	1.3237464775619438573	37.0450827961426867319	0.2000000000000000111	0.8000000000000000444	IRIF	0	0	0	0	Reversal_Task			-1	1	55	0	11	11	30	right	37		17.5	5.5
6.4.2	Reversal_Task	1	2021-07-20	16:59:51	0	3000	0	3000	1.3237464775619438573	37.0450827961426867319	40	2000	7	0	2	practice	0	1.3237464775619438573	37.0450827961426867319	0.2000000000000000111	0.8000000000000000444	IRIF	0	0	0	0	Reversal_Task			-1	1	56	0	11	11	30	right	37		17.5	5.5
6.4.2	Reversal_Task	1	2021-07-20	16:59:51	0	3000	0	3000	1.3237464775619438573	37.0450827961426867319	40	2000	7	0	2	practice	0	1.3237464775619438573	37.0450827961426867319	0.2000000000000000111	0.8000000000000000444	IRIF	0	0	0	0	Reversal_Task			-1	1	56	0	11	11	30	right	37		17.5	5.5
6.4.2	Reversal_Task	1	2021-07-20	16:59:51	0	3000	0	3000	1.3237464775619438573	37.0450827961426867319	40	2000	7	0	2	practice	0	1.3237464775619438573	37.0450827961426867319	0.2000000000000000111	0.8000000000000000444	IRIF	0	0	0	0	Reversal_Task			-1	1	57	0	11	11	30	right	37		17.5	5.5
6.4.2	Reversal_Task	1	2021-07-20	16:59:51	0	3000	0	3000	1.3237464775619438573	37.0450827961426867319	40	2000	7	0	2	practice	0	1.3237464775619438573	37.0450827961426867319	0.2000000000000000111	0.8000000000000000444	IRIF	0	0	0	0	Reversal_Task			-1	1	57	0	11	11	30	right	37		17.5	5.5
6.4.2	Reversal_Task	1	2021-07-20	16:59:51	0	3000	0	3000	1.3237464775619438573	37.0450827961426867319	40	2000	7	0	2	practice	0	1.3237464775619438573	37.0450827961426867319	0.2000000000000000111	0.8000000000000000444	IRIF	0	0	0	0	Reversal_Task			-1	1	58	0	11	11	30	right	37		17.5	5.5
6.4.2	Reversal_Task	1	2021-07-20	16:59:51	0	3000	0	3000	1.3237464775619438573	37.0450827961426867319	40	2000	7	0	2	practice	0	1.3237464775619438573	37.0450827961426867319	0.2000000000000000111	0.8000000000000000444	IRIF	0	0	0	0	Reversal_Task			-1	1	58	0	11	11	30	right	37		17.5	5.5
6.4.2	Reversal_Task	1	2021-07-20	16:59:51	0	3000	0	3000	1.3237464775619438573	37.0450827961426867319	40	2000	7	0	2	practice	0	1.3237464775619438573	37.0450827961426867319	0.2000000000000000111	0.8000000000000000444	IRIF	0	0	0	0	Reversal_Task			-1	1	59	0	11	11	30	right	37		17.5	5.5
6.4.2	Reversal_Task	1	2021-07-20	16:59:51	0	3000	0	3000	1.3237464775619438573	37.0450827961426867319	40	2000	7	0	2	practice	0	1.3237464775619438573	37.0450827961426867319	0.2000000000000000111	0.8000000000000000444	IRIF	0	0	0	0	Reversal_Task			-1	1	59	0	11	11	30	right	37		17.5	5.5
6.4.2	Reversal_Task	1	2021-07-20	16:59:51	0	3000	0	3000	1.3237464775619438573	37.0450827961426867319	40	2000	7	0	2	practice	0	1.3237464775619438573	37.0450827961426867319	0.2000000000000000111	0.8000000000000000444	IRIF	0	0	0	0	Reversal_Task			-1	1	60	0	11	11	30	right	37		17.5	5.5
6.4.2	Reversal_Task	1	2021-07-20	16:59:51	0	3000	0	3000	1.3237464775619438573	37.0450827961426867319	40	2000	7	0	2	practice	0	1.3237464775619438573	37.0450827961426867319	0.2000000000000000111	0.8000000000000000444	IRIF	0	0	0	0	Reversal_Task			-1	1	60	0	11	11	30	right	37		17.5	5.5
6.4.2	Reversal_Task	1	2021-07-20	16:59:51	0	3000	0	3000	1.3237464775619438573	37.0450827961426867319	40	2000	7	0	2	practice	0	1.3237464775619438573	37.0450827961426867319	0.2000000000000000111	0.8000000000000000444	IRIF	0	0	0	0	Reversal_Task			-1	1	61	0	11	11	30	right	37		17.5	5.5
6.4.2	Reversal_Task	1	2021-07-20	16:59:51	0	3000	0	3000	1.3237464775619438573	37.0450827961426867319	40	2000	7	0	2	practice	0	1.3237464775619438573	37.0450827961426867319	0.2000000000000000111	0.8000000000000000444	IRIF	0	0	0	0	Reversal_Task			-1	1	61	0	11	11	30	right	37		17.5	5.5
6.4.2	Reversal_Task	1	2021-07-20	16:59:51	0	3000	0	3000	1.3237464775619438573	37.0450827961426867319	40	2000	7	0	2	practice	0	1.3237464775619438573	37.0450827961426867319	0.2000000000000000111	0.8000000000000000444	IRIF	0	0	0	0	Reversal_Task			-1	1	62	0	11	11	30	right	37		17.5	5.5
6.4.2	Reversal_Task	1	2021-07-20	16:59:51	0	3000	0	3000	1.3237464775619438573	37.0450827961426867319	40	2000	7	0	2	practice	0	1.3237464775619438573	37.0450827961426867319	0.2000000000000000111	0.8000000000000000444	IRIF	0	0	0	0	Reversal_Task			-1	1	62	0	11	11	30	right	37		17.5	5.5
6.4.2	Reversal_Task	1	2021-07-20	16:59:51	0	3000	0	3000	1.3237464775619438573	37.0450827961426867319	40	2000	7	0	2	practice	0	1.3237464775619438573	37.0450827961426867319	0.2000000000000000111	0.8000000000000000444	IRIF	0	0	0	0	Reversal_Task			-1	1	63	0	11	11	30	right	37		17.5	5.5
6.4.2	Reversal_Task	1	2021-07-20	16:59:51	0	3000	0	3000	1.3237464775619438573	37.0450827961426867319	40	2000	7	0	2	practice	0	1.3237464775619438573	37.0450827961426867319	0.2000000000000000111	0.8000000000000000444	IRIF	0	0	0	0	Reversal_Task			-1	1	63	0	11	11	30	right	37		17.5	5.5
6.4.2	Reversal_Task	1	2021-07-20	16:59:51	0	3000	0	3000	1.3237464775619438573	37.0450827961426867319	40	2000	7	0	2	practice	0	1.3237464775619438573	37.0450827961426867319	0.2000000000000000111	0.8000000000000000444	IRIF	0	0	0	0	Reversal_Task			-1	1	64	0	11	11	30	right	37		17.5	5.5
6.4.2	Reversal_Task	1	2021-07-20	16:59:51	0	3000	0	3000	1.3237464775619438573	37.0450827961426867319	40	2000	7	0	2	practice	0	1.3237464775619438573	37.0450827961426867319	0.2000000000000000111	0.8000000000000000444	IRIF	0	0	0	0	Reversal_Task			-1	1	64	0	11	11	30	right	37		17.5	5.5
6.4.2	Reversal_Task	1	2021-07-20	16:59:51	0	3000	0	3000	1.3237464775619438573	37.0450827961426867319	40	2000	7	0	2	practice	0	1.3237464775619438573	37.0450827961426867319	0.2000000000000000111	0.8000000000000000444	IRIF	0	0	0	0	Reversal_Task			-1	1	65	0	11	11	30	right	37		17.5	5.5
6.4.2	Reversal_Task	1	2021-07-20	16:59:51	0	3000	0	3000	1.3237464775619438573	37.0450827961426867319	40	2000	7	0	2	practice	0	1.3237464775619438573	37.0450827961426867319	0.2000000000000000111	0.8000000000000000444	IRIF	0	0	0	0	Reversal_Task			-1	1	65	0	11	11	30	right	37		17.5	5.5
6.4.2	Reversal_Task	1	2021-07-20	16:59:51	0	3000	0	3000	1.3237464775619438573	37.0450827961426867319	40	2000	7	0	2	practice	0	1.3237464775619438573	37.0450827961426867319	0.2000000000000000111	0.8000000000000000444	IRIF	0	0	0	0	Reversal_Task			-1	1	66	0	11	11	30	right	37		17.5	5.5
6.4.2	Reversal_Task	1	2021-07-20	16:59:51	0	3000	0	3000	1.3237464775619438573	37.0450827961426867319	40	2000	7	0	2	practice	0	1.3237464775619438573	37.0450827961426867319	0.2000000000000000111	0.8000000000000000444	IRIF	0	0	0	0	Reversal_Task			-1	1	66	0	11	11	30	right	37		17.5	5.5
6.4.2	Reversal_Task	1	2021-07-20	16:59:51	0	3000	0	3000	1.3237464775619438573	37.0450827961426867319	40	2000	7	0	2	practice	0	1.3237464775619438573	37.0450827961426867319	0.2000000000000000111	0.8000000000000000444	IRIF	0	0	0	0	Reversal_Task			-1	1	67	0	11	11	30	right	37		17.5	5.5
6.4.2	Reversal_Task	1	2021-07-20	16:59:51	0	3000	0	3000	1.3237464775619438573	37.0450827961426867319	40	2000	7	0	2	practice	0	1.3237464775619438573	37.0450827961426867319	0.2000000000000000111	0.8000000000000000444	IRIF	0	0	0	0	Reversal_Task			-1	1	67	0	11	11	30	right	37		17.5	5.5
6.4.2	Reversal_Task	1	2021-07-20	16:59:51	0	3000	0	3000	1.3237464775619438573	37.0450827961426867319	40	2000	7	0	2	practice	0	1.3237464775619438573	37.0450827961426867319	0.2000000000000000111	0.8000000000000000444	IRIF	0	0	0	0	Reversal_Task			-1	1	68	0	11	11	30	right	37		17.5	5.5
6.4.2	Reversal_Task	1	2021-07-20	16:59:51	0	3000	0	3000	1.3237464775619438573	37.0450827961426867319	40	2000	7	0	2	practice	0	1.3237464775619438573	37.0450827961426867319	0.2000000000000000111	0.8000000000000000444	IRIF	0	0	0	0	Reversal_Task			-1	1	68	0	11	11	30	right	37		17.5	5.5
6.4.2	Reversal_Task	1	2021-07-20	16:59:51	0	3000	0	3000	1.3237464775619438573	37.0450827961426867319	40	2000	7	0	2	practice	0	1.3237464775619438573	37.0450827961426867319	0.2000000000000000111	0.8000000000000000444	IRIF	0	0	0	0	Reversal_Task			-1	1	69	0	11	11	30	right	37		17.5	5.5
6.4.2	Reversal_Task	1	2021-07-20	16:59:51	0	3000	0	3000	1.3237464775619438573	37.0450827961426867319	40	2000	7	0	2	practice	0	1.3237464775619438573	37.0450827961426867319	0.2000000000000000111	0.8000000000000000444	IRIF	0	0	0	0	Reversal_Task			-1	1	69	0	11	11	30	right	37		17.5	5.5
6.4.2	Reversal_Task	1	2021-07-20	16:59:51	0	3000	0	3000	1.3237464775619438573	37.0450827961426867319	40	2000	7	0	2	practice	0	1.3237464775619438573	37.0450827961426867319	0.2000000000000000111	0.8000000000000000444	IRIF	0	0	0	0	Reversal_Task			-1	1	70	0	11	11	30	right	37		17.5	5.5
6.4.2	Reversal_Task	1	2021-07-20	16:59:51	0	3000	0	3000	1.3237464775619438573	37.0450827961426867319	40	2000	7	0	2	practice	0	1.3237464775619438573	37.0450827961426867319	0.2000000000000000111	0.8000000000000000444	IRIF	0	0	0	0	Reversal_Task			-1	1	70	0	11	11	30	right	37		17.5	5.5
6.4.2	Reversal_Task	1	2021-07-20	16:59:51	0	3000	0	3000	1.3237464775619438573	37.0450827961426867319	40	2000	7	0	2	practice	0	1.3237464775619438573	37.0450827961426867319	0.2000000000000000111	0.8000000000000000444	IRIF	0	0	0	0	Reversal_Task			-1	1	71	0	11	11	30	right	37		17.5	5.5
6.4.2	Reversal_Task	1	2021-07-20	16:59:51	0	3000	0	3000	1.3237464775619438573	37.0450827961426867319	40	2000	7	0	2	practice	0	1.3237464775619438573	37.0450827961426867319	0.2000000000000000111	0.8000000000000000444	IRIF	0	0	0	0	Reversal_Task			-1	1	71	0	11	11	30	right	37		17.5	5.5
6.4.2	Reversal_Task	1	2021-07-20	16:59:51	0	3000	0	3000	1.3237464775619438573	37.0450827961426867319	40	2000	7	0	2	practice	0	1.3237464775619438573	37.0450827961426867319	0.2000000000000000111	0.8000000000000000444	IRIF	0	0	0	0	Reversal_Task			-1	1	72	0	11	11	30	right	37		17.5	5.5
6.4.2	Reversal_Task	1	2021-07-20	16:59:51	0	3000	0	3000	1.3237464775619438573	37.0450827961426867319	40	2000	7	0	2	practice	0	1.3237464775619438573	37.0450827961426867319	0.2000000000000000111	0.8000000000000000444	IRIF	0	0	0	0	Reversal_Task			-1	1	72	0	11	11	30	right	37		17.5	5.5
6.4.2	Reversal_Task	1	2021-07-20	16:59:51	0	3000	0	3000	1.3237464775619438573	37.0450827961426867319	40	2000	7	0	2	practice	0	1.3237464775619438573	37.0450827961426867319	0.2000000000000000111	0.8000000000000000444	IRIF	0	0	0	0	Reversal_Task			-1	1	73	0	11	11	30	right	37		17.5	5.5
6.4.2	Reversal_Task	1	2021-07-20	16:59:51	0	3000	0	3000	1.3237464775619438573	37.0450827961426867319	40	2000	7	0	2	practice	0	1.3237464775619438573	37.0450827961426867319	0.2000000000000000111	0.8000000000000000444	IRIF	0	0	0	0	Reversal_Task			-1	1	73	0	11	11	30	right	37		17.5	5.5
6.4.2	Reversal_Task	1	2021-07-20	16:59:51	0	3000	0	3000	1.3237464775619438573	37.0450827961426867319	40	2000	7	0	2	practice	0	1.3237464775619438573	37.0450827961426867319	0.2000000000000000111	0.8000000000000000444	IRIF	0	0	0	0	Reversal_Task			-1	1	74	0	11	11	30	right	37		17.5	5.5
6.4.2	Reversal_Task	1	2021-07-20	16:59:51	0	3000	0	3000	1.3237464775619438573	37.0450827961426867319	40	2000	7	0	2	practice	0	1.3237464775619438573	37.0450827961426867319	0.2000000000000000111	0.8000000000000000444	IRIF	0	0	0	0	Reversal_Task			-1	1	74	0	11	11	30	right	37		17.5	5.5
6.4.2	Reversal_Task	1	2021-07-20	16:59:51	0	3000	0	3000	1.3237464775619438573	37.0450827961426867319	40	2000	7	0	2	practice	0	1.3237464775619438573	37.0450827961426867319	0.2000000000000000111	0.8000000000000000444	IRIF	0	0	0	0	Reversal_Task			-1	1	75	0	11	11	30	right	37		17.5	5.5
6.4.2	Reversal_Task	1	2021-07-20	16:59:51	0	3000	0	3000	1.3237464775619438573	37.0450827961426867319	40	2000	7	0	2	practice	0	1.3237464775619438573	37.0450827961426867319	0.2000000000000000111	0.8000000000000000444	IRIF	0	0	0	0	Reversal_Task			-1	1	75	0	11	11	30	right	37		17.5	5.5
6.4.2	Reversal_Task	1	2021-07-20	16:59:51	0	3000	0	3000	1.3237464775619438573	37.0450827961426867319	40	2000	7	0	2	practice	0	1.3237464775619438573	37.0450827961426867319	0.2000000000000000111	0.8000000000000000444	IRIF	0	0	0	0	Reversal_Task			-1	1	76	0	11	11	30	right	37		17.5	5.5
6.4.2	Reversal_Task	1	2021-07-20	16:59:51	0	3000	0	3000	1.3237464775619438573	37.0450827961426867319	40	2000	7	0	2	practice	0	1.3237464775619438573	37.0450827961426867319	0.2000000000000000111	0.8000000000000000444	IRIF	0	0	0	0	Reversal_Task			-1	1	76	0	11	11	30	right	37		17.5	5.5
6.4.2	Reversal_Task	1	2021-07-20	16:59:51	0	3000	0	3000	1.3237464775619438573	37.0450827961426867319	40	2000	7	0	2	practice	0	1.3237464775619438573	37.0450827961426867319	0.2000000000000000111	0.8000000000000000444	IRIF	0	0	0	0	Reversal_Task			-1	1	77	0	11	11	30	right	37		17.5	5.5
6.4.2	Reversal_Task	1	2021-07-20	16:59:51	0	3000	0	3000	1.3237464775619438573	37.0450827961426867319	40	2000	7	0	2	practice	0	1.3237464775619438573	37.0450827961426867319	0.2000000000000000111	0.8000000000000000444	IRIF	0	0	0	0	Reversal_Task			-1	1	77	0	11	11	30	right	37		17.5	5.5
6.4.2	Reversal_Task	1	2021-07-20	16:59:51	0	3000	0	3000	1.3237464775619438573	37.0450827961426867319	40	2000	7	0	2	practice	0	1.3237464775619438573	37.0450827961426867319	0.2000000000000000111	0.8000000000000000444	IRIF	0	0	0	0	Reversal_Task			-1	1	78	0	11	11	30	right	37		17.5	5.5
6.4.2	Reversal_Task	1	2021-07-20	16:59:51	0	3000	0	3000	1.3237464775619438573	37.0450827961426867319	40	2000	7	0	2	practice	0	1.3237464775619438573	37.0450827961426867319	0.2000000000000000111	0.8000000000000000444	IRIF	0	0	0	0	Reversal_Task			-1	1	78	0	11	11	30	right	37		17.5	5.5
6.4.2	Reversal_Task	1	2021-07-20	16:59:51	0	3000	0	3000	1.3237464775619438573	37.0450827961426867319	40	2000	7	0	2	practice	0	1.3237464775619438573	37.0450827961426867319	0.2000000000000000111	0.8000000000000000444	IRIF	0	0	0	0	Reversal_Task			-1	1	79	0	11	11	30	right	37		17.5	5.5
6.4.2	Reversal_Task	1	2021-07-20	16:59:51	0	3000	0	3000	1.3237464775619438573	37.0450827961426867319	40	2000	7	0	2	practice	0	1.3237464775619438573	37.0450827961426867319	0.2000000000000000111	0.8000000000000000444	IRIF	0	0	0	0	Reversal_Task			-1	1	79	0	11	11	30	right	37		17.5	5.5
6.4.2	Reversal_Task	1	2021-07-20	16:59:51	0	3000	0	3000	1.3237464775619438573	37.0450827961426867319	40	2000	7	0	2	practice	0	1.3237464775619438573	37.0450827961426867319	0.2000000000000000111	0.8000000000000000444	IRIF	0	0	0	0	Reversal_Task			-1	1	80	0	11	11	30	right	37		17.5	5.5
6.4.2	Reversal_Task	1	2021-07-20	16:59:51	0	3000	0	3000	1.3237464775619438573	37.0450827961426867319	40	2000	7	0	3	practice	0	1.3237464775619438573	37.0450827961426867319	0.2000000000000000111	0.8000000000000000444	IRIF	0	0	0	0	Reversal_Task			-1	1	80	0	11	11	30	right	37		17.5	5.5
6.4.2	Reversal_Task	1	2021-07-20	16:59:51	0	3000	0	3000	1.3237464775619438573	37.0450827961426867319	40	2000	7	0	3	practice	0	33.9934073083553016659	33.8053521168896367044	0.2000000000000000111	0.8000000000000000444	IRIF	0	0	0	0	Reversal_Task			-1	1	0	0	11	0	0	right	49		17.5	5.5
6.4.2	Reversal_Task	1	2021-07-20	16:59:51	0	3000	0	3000	31.1293690051253335582	25.0512944262128520734	40	2000	7	0	3	practice	0	31.1293690051253335582	25.0512944262128520734	0.2000000000000000111	0.8000000000000000444	IRIF	0	0	0	0	Reversal_Task			-1	1	1	0	0	0	0	right	49		23	0
6.4.2	Reversal_Task	1	2021-07-20	16:59:51	0	3000	0	3000	31.1293690051253335582	25.0512944262128520734	40	2000	7	0	3	practice	0	31.1293690051253335582	25.0512944262128520734	0.2000000000000000111	0.8000000000000000444	IRIF	0	0	0	0	Reversal_Task			-1	1	1	0	0	0	0	right	49		23	0
6.4.2	Reversal_Task	1	2021-07-20	16:59:51	0	3000	0	3000	31.1293690051253335582	25.0512944262128520734	40	2000	7	0	3	practice	0	31.1293690051253335582	25.0512944262128520734	0.2000000000000000111	0.8000000000000000444	IRIF	0	0	0	0	Reversal_Task			-1	1	2	0	0	0	0	right	49		23	0
6.4.2	Reversal_Task	1	2021-07-20	16:59:51	0	3000	0	3000	31.1293690051253335582	25.0512944262128520734	40	2000	7	0	3	practice	0	31.1293690051253335582	25.0512944262128520734	0.2000000000000000111	0.8000000000000000444	IRIF	0	0	0	0	Reversal_Task			-1	1	2	0	0	0	0	right	49		23	0
6.4.2	Reversal_Task	1	2021-07-20	16:59:51	0	3000	0	3000	31.1293690051253335582	25.0512944262128520734	40	2000	7	0	3	practice	0	31.1293690051253335582	25.0512944262128520734	0.2000000000000000111	0.8000000000000000444	IRIF	0	0	0	0	Reversal_Task			-1	1	3	0	0	0	0	right	49		23	0
6.4.2	Reversal_Task	1	2021-07-20	16:59:51	0	3000	0	3000	31.1293690051253335582	25.0512944262128520734	40	2000	7	0	3	practice	0	31.1293690051253335582	25.0512944262128520734	0.2000000000000000111	0.8000000000000000444	IRIF	0	0	0	0	Reversal_Task			-1	1	3	0	0	0	0	right	49		23	0
6.4.2	Reversal_Task	1	2021-07-20	16:59:51	0	3000	0	3000	31.1293690051253335582	25.0512944262128520734	40	2000	7	0	3	practice	0	31.1293690051253335582	25.0512944262128520734	0.2000000000000000111	0.8000000000000000444	IRIF	0	0	0	0	Reversal_Task			-1	1	4	0	0	0	0	right	49		23	0
6.4.2	Reversal_Task	1	2021-07-20	16:59:51	0	3000	0	3000	31.1293690051253335582	25.0512944262128520734	40	2000	7	0	3	practice	0	31.1293690051253335582	25.0512944262128520734	0.2000000000000000111	0.8000000000000000444	IRIF	0	0	0	0	Reversal_Task			-1	1	4	0	0	0	0	right	49		23	0
6.4.2	Reversal_Task	1	2021-07-20	16:59:51	0	3000	0	3000	31.1293690051253335582	25.0512944262128520734	40	2000	7	0	3	practice	0	31.1293690051253335582	25.0512944262128520734	0.2000000000000000111	0.8000000000000000444	IRIF	0	0	0	0	Reversal_Task			-1	1	5	0	0	0	0	right	49		23	0
6.4.2	Reversal_Task	1	2021-07-20	16:59:51	0	3000	0	3000	31.1293690051253335582	25.0512944262128520734	40	2000	7	0	3	practice	0	31.1293690051253335582	25.0512944262128520734	0.2000000000000000111	0.8000000000000000444	IRIF	0	0	0	0	Reversal_Task			-1	1	5	0	0	0	0	right	49		23	0
6.4.2	Reversal_Task	1	2021-07-20	16:59:51	0	3000	0	3000	31.1293690051253335582	25.0512944262128520734	40	2000	7	0	3	practice	0	31.1293690051253335582	25.0512944262128520734	0.2000000000000000111	0.8000000000000000444	IRIF	0	0	0	0	Reversal_Task			-1	1	6	0	0	0	0	right	49		23	0
6.4.2	Reversal_Task	1	2021-07-20	16:59:51	0	3000	0	3000	31.1293690051253335582	25.0512944262128520734	40	2000	7	0	3	practice	0	31.1293690051253335582	25.0512944262128520734	0.2000000000000000111	0.8000000000000000444	IRIF	0	0	0	0	Reversal_Task			-1	1	6	0	0	0	0	right	49		23	0
6.4.2	Reversal_Task	1	2021-07-20	16:59:51	0	3000	0	3000	31.1293690051253335582	25.0512944262128520734	40	2000	7	0	3	practice	0	31.1293690051253335582	25.0512944262128520734	0.2000000000000000111	0.8000000000000000444	IRIF	0	0	0	0	Reversal_Task			-1	1	7	0	0	0	0	right	49		23	0
6.4.2	Reversal_Task	1	2021-07-20	16:59:51	0	3000	0	3000	31.1293690051253335582	25.0512944262128520734	40	2000	7	0	3	practice	0	31.1293690051253335582	25.0512944262128520734	0.2000000000000000111	0.8000000000000000444	IRIF	0	0	0	0	Reversal_Task			-1	1	7	0	0	0	0	right	49		23	0
6.4.2	Reversal_Task	1	2021-07-20	16:59:51	0	3000	0	3000	31.1293690051253335582	25.0512944262128520734	40	2000	7	0	3	practice	0	31.1293690051253335582	25.0512944262128520734	0.2000000000000000111	0.8000000000000000444	IRIF	0	0	0	0	Reversal_Task			-1	1	8	0	0	0	0	right	49		23	0
6.4.2	Reversal_Task	1	2021-07-20	16:59:51	0	3000	0	3000	31.1293690051253335582	25.0512944262128520734	40	2000	7	0	3	practice	0	31.1293690051253335582	25.0512944262128520734	0.2000000000000000111	0.8000000000000000444	IRIF	0	0	0	0	Reversal_Task			-1	1	8	0	0	0	0	right	49		23	0
6.4.2	Reversal_Task	1	2021-07-20	16:59:51	0	3000	0	3000	31.1293690051253335582	25.0512944262128520734	40	2000	7	0	3	practice	0	31.1293690051253335582	25.0512944262128520734	0.2000000000000000111	0.8000000000000000444	IRIF	0	0	0	0	Reversal_Task			-1	1	9	0	0	0	0	right	49		23	0
6.4.2	Reversal_Task	1	2021-07-20	16:59:51	0	3000	0	3000	31.1293690051253335582	25.0512944262128520734	40	2000	7	0	3	practice	0	31.1293690051253335582	25.0512944262128520734	0.2000000000000000111	0.8000000000000000444	IRIF	0	0	0	0	Reversal_Task			-1	1	9	0	0	0	0	right	49		23	0
6.4.2	Reversal_Task	1	2021-07-20	16:59:51	0	3000	0	3000	31.1293690051253335582	25.0512944262128520734	40	2000	7	0	3	practice	0	31.1293690051253335582	25.0512944262128520734	0.2000000000000000111	0.8000000000000000444	IRIF	0	0	0	0	Reversal_Task			-1	1	10	0	0	0	0	right	49		23	0
6.4.2	Reversal_Task	1	2021-07-20	16:59:51	0	3000	0	3000	31.1293690051253335582	25.0512944262128520734	40	2000	7	0	3	practice	0	31.1293690051253335582	25.0512944262128520734	0.2000000000000000111	0.8000000000000000444	IRIF	0	0	0	0	Reversal_Task			-1	1	10	0	0	0	0	right	49		23	0
6.4.2	Reversal_Task	1	2021-07-20	16:59:51	0	3000	0	3000	31.1293690051253335582	25.0512944262128520734	40	2000	7	0	3	practice	0	31.1293690051253335582	25.0512944262128520734	0.2000000000000000111	0.8000000000000000444	IRIF	0	0	0	0	Reversal_Task			-1	1	11	0	0	0	0	right	49		23	0
6.4.2	Reversal_Task	1	2021-07-20	16:59:51	0	3000	0	3000	31.1293690051253335582	25.0512944262128520734	40	2000	7	0	3	practice	0	31.1293690051253335582	25.0512944262128520734	0.2000000000000000111	0.8000000000000000444	IRIF	0	0	0	0	Reversal_Task			-1	1	11	0	0	0	0	right	49		23	0
6.4.2	Reversal_Task	1	2021-07-20	16:59:51	0	3000	0	3000	31.1293690051253335582	25.0512944262128520734	40	2000	7	0	3	practice	0	31.1293690051253335582	25.0512944262128520734	0.2000000000000000111	0.8000000000000000444	IRIF	0	0	0	0	Reversal_Task			-1	1	12	0	0	0	0	right	49		23	0
6.4.2	Reversal_Task	1	2021-07-20	16:59:51	0	3000	0	3000	31.1293690051253335582	25.0512944262128520734	40	2000	7	0	3	practice	0	31.1293690051253335582	25.0512944262128520734	0.2000000000000000111	0.8000000000000000444	IRIF	0	0	0	0	Reversal_Task			-1	1	12	0	0	0	0	right	49		23	0
6.4.2	Reversal_Task	1	2021-07-20	16:59:51	0	3000	0	3000	31.1293690051253335582	25.0512944262128520734	40	2000	7	0	3	practice	0	31.1293690051253335582	25.0512944262128520734	0.2000000000000000111	0.8000000000000000444	IRIF	0	0	0	0	Reversal_Task			-1	1	13	0	0	0	0	right	49		23	0
6.4.2	Reversal_Task	1	2021-07-20	16:59:51	0	3000	0	3000	31.1293690051253335582	25.0512944262128520734	40	2000	7	0	3	practice	0	31.1293690051253335582	25.0512944262128520734	0.2000000000000000111	0.8000000000000000444	IRIF	0	0	0	0	Reversal_Task			-1	1	13	0	0	0	0	right	49		23	0
6.4.2	Reversal_Task	1	2021-07-20	16:59:51	0	3000	0	3000	31.1293690051253335582	25.0512944262128520734	40	2000	7	0	3	practice	0	31.1293690051253335582	25.0512944262128520734	0.2000000000000000111	0.8000000000000000444	IRIF	0	0	0	0	Reversal_Task			-1	1	14	0	0	0	0	right	49		23	0
6.4.2	Reversal_Task	1	2021-07-20	16:59:51	0	3000	0	3000	31.1293690051253335582	25.0512944262128520734	40	2000	7	0	3	practice	0	31.1293690051253335582	25.0512944262128520734	0.2000000000000000111	0.8000000000000000444	IRIF	0	0	0	0	Reversal_Task			-1	1	14	0	0	0	0	right	49		23	0
6.4.2	Reversal_Task	1	2021-07-20	16:59:51	0	3000	0	3000	31.1293690051253335582	25.0512944262128520734	40	2000	7	0	3	practice	0	31.1293690051253335582	25.0512944262128520734	0.2000000000000000111	0.8000000000000000444	IRIF	0	0	0	0	Reversal_Task			-1	1	15	0	0	0	0	right	49		23	0
6.4.2	Reversal_Task	1	2021-07-20	16:59:51	0	3000	0	3000	31.1293690051253335582	25.0512944262128520734	40	2000	7	0	3	practice	0	31.1293690051253335582	25.0512944262128520734	0.2000000000000000111	0.8000000000000000444	IRIF	0	0	0	0	Reversal_Task			-1	1	15	0	0	0	0	right	49		23	0
6.4.2	Reversal_Task	1	2021-07-20	16:59:51	0	3000	0	3000	31.1293690051253335582	25.0512944262128520734	40	2000	7	0	3	practice	0	31.1293690051253335582	25.0512944262128520734	0.2000000000000000111	0.8000000000000000444	IRIF	0	0	0	0	Reversal_Task			-1	1	16	0	0	0	0	right	49		23	0
6.4.2	Reversal_Task	1	2021-07-20	16:59:51	0	3000	0	3000	31.1293690051253335582	25.0512944262128520734	40	2000	7	0	3	practice	0	31.1293690051253335582	25.0512944262128520734	0.2000000000000000111	0.8000000000000000444	IRIF	0	0	0	0	Reversal_Task			-1	1	16	0	0	0	0	right	49		23	0
